Time,Temp,Pressure,Height (ft),Euler X,Euler Y,Euler Z,Ang  x,Ang  y,Ang z,Linear accel x,Linear accel y,Linear accel z
657504,35.54,984.62,13.28,0.25,-3.69,-1.31,0.03,-0.15,-0.57,-1.88,-0.84,29.64
657566,35.54,984.59,14.09,2.12,-3.62,-1.38,0.08,-0.07,-0.55,-0.22,2.31,29.64
657592,35.54,984.59,15.1,2.75,-3.56,-1.44,0.08,-0.07,-0.55,-1.58,1.38,29.64
657616,35.54,984.56,15.1,3.62,-3.56,-1.56,0.11,-0.02,-0.5,-2.28,1.23,29.64
657643,35.55,984.52,16.14,4.12,-3.5,-1.62,0.13,-0.07,-0.43,-1.44,1.83,29.64
657667,35.55,984.52,16.14,4.69,-3.44,-1.88,0.15,-0.03,-0.32,-1.84,1.67,29.64
657689,35.56,984.48,17.34,5.06,-3.44,-2,0.18,-0.06,-0.31,-1.59,1.76,29.64
657713,35.56,984.48,18.84,5.38,-3.38,-2.19,0.2,-0.04,-0.26,-1.95,1.77,29.64
657739,35.57,984.42,18.84,5.75,-3.31,-2.56,0.23,-0.06,-0.18,-1.5,1.7,29.64
657764,35.58,984.37,20.44,5.88,-3.25,-2.81,0.26,-0.06,-0.11,-1.32,1.85,29.65
657790,35.58,984.37,22.08,5.94,-3.12,-3.31,0.3,-0.07,0.03,-1.43,1.69,29.65
657815,35.59,984.31,22.08,5.81,-3,-3.69,0.33,-0.09,0.2,-1.84,1.69,29.65
657837,35.61,984.24,23.88,5.38,-2.88,-4.25,0.36,-0.1,0.34,-1.87,1.62,29.66
657861,35.61,984.24,25.76,4.88,-2.69,-4.69,0.38,-0.1,0.49,-1.57,1.62,29.66
657883,35.62,984.18,25.76,4.25,-2.5,-5.19,0.43,-0.13,0.76,-1.73,1.35,29.67
657907,35.62,984.18,27.76,2.94,-2.19,-6,0.46,-0.14,0.82,-1.67,0.91,29.68
657934,35.64,984.1,27.76,2,-1.88,-6.56,0.48,-0.16,0.87,-1.61,0.75,29.69
657956,35.65,984.03,29.88,0.5,-1.44,-7.44,0.51,-0.18,0.94,-1.92,0.21,29.7
657982,35.65,984.03,32.08,359.5,-1.06,-8,0.52,-0.2,0.94,-1.91,-0.32,29.71
658007,35.66,983.95,32.08,357.88,-0.44,-8.94,0.53,-0.23,0.98,-1.96,-1.03,29.74
658029,35.67,983.86,34.45,356.88,0,-9.5,0.52,-0.25,0.94,-2.36,-1.13,29.75
658056,35.67,983.86,37.04,355.88,0.38,-10.06,0.52,-0.27,0.91,-2.69,-1.47,29.78
658082,35.69,983.77,37.04,354.44,1.12,-10.94,0.51,-0.29,0.9,-2.64,-2.12,29.8
658104,35.7,983.67,39.83,353.44,1.62,-11.5,0.51,-0.31,0.89,-2.78,-2.52,29.83
658128,35.7,983.67,42.87,352,2.44,-12.25,0.49,-0.33,0.87,-3.07,-2.78,29.85
658155,35.71,983.56,42.87,351.12,3.06,-12.75,0.47,-0.34,0.86,-3.16,-3.18,29.87
658178,35.72,983.44,46.29,349.75,3.94,-13.44,0.44,-0.36,0.84,-3.64,-3.8,29.91
658204,35.72,983.44,50.09,348.81,4.56,-13.81,0.42,-0.37,0.84,-4.23,-4.18,29.93
658229,35.73,983.31,50.09,347.38,5.5,-14.38,0.36,-0.36,0.92,-5.07,-4.99,29.97
658251,35.74,983.15,54.37,346.38,6.12,-14.62,0.31,-0.36,0.99,-5.62,-5.8,29.99
658275,35.74,983.15,54.37,345.25,6.81,-14.81,0.27,-0.34,1.05,-6.53,-5.8,30.01
658297,35.75,982.99,58.87,343.44,7.81,-15,0.19,-0.29,1.14,-7.32,-6.1,30.04
658321,35.75,982.99,63.89,342.19,8.38,-15,0.15,-0.25,1.18,-7.79,-6.36,30.05
658348,35.76,982.81,63.89,340.81,9,-14.94,0.09,-0.21,1.24,-7.68,-6.67,30.06
658370,35.77,982.63,68.98,338.62,9.88,-14.62,0,-0.15,1.43,-7.57,-6.39,30.08
658397,35.77,982.63,74,336.88,10.44,-14.25,-0.07,-0.11,1.62,-8.45,-6.18,30.08
658421,35.77,982.45,74,333.94,11.25,-13.5,-0.15,-0.04,1.88,-8.47,-5.42,30.07
658443,35.78,982.27,79.16,331.75,11.75,-12.88,-0.19,0,2.03,-9.11,-5.11,30.06
658467,35.78,982.27,79.16,329.38,12.25,-12.06,-0.24,0.06,2.19,-9,-4.9,30.05
658489,35.79,982.09,84.25,325.5,12.81,-10.75,-0.3,0.14,2.4,-9.25,-3.99,30.03
658513,35.79,982.09,89.45,322.75,13.12,-9.75,-0.32,0.2,2.54,-9,-3.36,30.01
658540,35.79,981.9,89.45,319.81,13.31,-8.69,-0.34,0.26,2.68,-8.93,-2.85,29.98
658562,35.8,981.71,94.73,315.19,13.44,-7,-0.34,0.34,2.87,-8.44,-2.1,29.96
658589,35.8,981.71,100.1,311.94,13.38,-5.81,-0.35,0.39,2.97,-7.96,-1.9,29.93
658614,35.81,981.52,100.1,306.88,13.12,-4.06,-0.33,0.45,3.1,-7.13,-1.35,29.9
658636,35.81,981.32,105.74,303.44,12.81,-2.88,-0.3,0.49,3.17,-6.98,-0.5,29.86
658662,35.81,981.32,111.58,299.88,12.38,-1.81,-0.27,0.51,3.23,-6.43,0.33,29.84
658688,35.82,981.11,111.58,294.44,11.62,-0.19,-0.22,0.53,3.3,-5.4,0.59,29.82
658710,35.82,980.89,117.69,288.94,10.69,1.12,-0.16,0.53,3.36,-4.12,0.27,29.79
658734,35.82,980.89,124.08,285.19,10.06,1.94,-0.12,0.51,3.38,-3.16,0.24,29.77
658761,35.83,980.67,124.08,281.44,9.31,2.69,-0.09,0.49,3.42,-2.93,0.19,29.76
658784,35.83,980.43,130.64,275.75,8.25,3.69,-0.04,0.44,3.46,-2.73,0.07,29.74
658811,35.83,980.43,137.56,271.94,7.5,4.25,-0.04,0.4,3.47,-1.71,-0.34,29.73
658836,35.84,980.18,137.56,266.12,6.44,5,-0.02,0.34,3.5,-1.48,-1.18,29.72
658858,35.84,979.92,144.9,262.25,5.75,5.44,-0.03,0.27,3.54,-0.85,-1.86,29.71
658883,35.84,979.92,152.55,258.31,5.12,5.88,-0.05,0.23,3.58,-1.31,-2.47,29.71
658908,35.85,979.65,152.55,252.31,4.19,6.5,-0.09,0.16,3.66,-1.4,-2.76,29.71
658933,35.85,979.37,160.5,248.19,3.56,6.94,-0.14,0.12,3.69,-1.53,-2.97,29.71
658959,35.85,979.37,168.78,242.06,2.56,7.56,-0.22,0.09,3.74,-1.96,-3.19,29.71
659017,35.86,978.77,177.24,229.31,0.44,8.94,-0.37,0.1,3.93,-3.45,-2.3,29.74
659044,35.86,978.77,186.03,224.88,-0.31,9.44,-0.42,0.11,3.99,-3.54,-1.86,29.75
659068,35.86,978.46,186.03,218.12,-1.69,10.06,-0.46,0.15,4.09,-3.56,-1.39,29.77
659123,35.86,978.14,194.99,206.62,-4.38,10.88,-0.51,0.28,4.24,-1.75,0.77,29.83
659147,35.86,978.14,204.78,199.56,-6.19,11.06,-0.51,0.29,4.29,-1.08,1.02,29.86
659171,35.86,977.79,204.78,194.75,-7.44,11.06,-0.47,0.32,4.31,-0.73,1.66,29.88
659196,35.86,977.43,214.81,190,-8.75,10.88,-0.43,0.33,4.34,0.93,1.94,29.92
659221,35.86,977.43,214.81,182.69,-10.62,10.38,-0.4,0.33,4.37,1.15,0.93,29.94
659243,35.86,977.07,225.09,177.81,-11.81,9.88,-0.38,0.3,4.41,1.52,1.27,29.98
659267,35.86,977.07,235.76,172.94,-12.94,9.25,-0.35,0.28,4.45,2.44,1.07,30
659295,35.85,976.69,235.76,165.44,-14.5,8,-0.33,0.26,4.46,3.04,0.63,30.02
659317,35.86,976.3,246.62,157.94,-15.81,6.56,-0.31,0.21,4.49,3.91,0.24,30.05
659343,35.86,976.3,257.7,152.94,-16.56,5.44,-0.3,0.17,4.51,3.88,-0.24,30.07
659368,35.86,975.91,257.7,147.88,-17.12,4.25,-0.31,0.12,4.55,3.52,-0.54,30.08
659390,35.86,975.51,269.08,140.19,-17.75,2.38,-0.31,0.09,4.58,3.37,-1.13,30.09
659417,35.86,975.51,280.67,135.06,-18,1.12,-0.33,0.08,4.61,3.52,-1.47,30.1
659443,35.86,975.09,280.67,127.25,-18.12,-0.81,-0.33,0.06,4.66,2.65,-2.02,30.1
659465,35.86,974.68,292.45,122,-18.06,-2.12,-0.38,0.06,4.71,2.09,-2.19,30.11
659489,35.86,974.68,304.4,114,-17.69,-4,-0.38,0.03,4.75,1.58,-2.48,30.1
659517,35.86,974.25,304.4,108.62,-17.31,-5.25,-0.42,0.06,4.79,1.41,-2.19,30.1
659539,35.87,973.82,316.65,100.56,-16.56,-6.94,-0.4,0.07,4.82,1.79,-1.15,30.1
659564,35.87,973.82,329.18,95.06,-16,-8.06,-0.43,0.09,4.85,2.02,-1.91,30.09
659589,35.87,973.37,329.18,89.62,-15.25,-9.12,-0.41,0.1,4.89,1.86,-1.68,30.08
659611,35.87,972.92,341.99,81.38,-14.06,-10.56,-0.4,0.1,4.9,1.63,-1.71,30.07
659635,35.87,972.92,341.99,75.88,-13.12,-11.44,-0.37,0.1,4.92,2.01,-1.27,30.06
659657,35.87,972.46,355.02,70.31,-12.12,-12.25,-0.35,0.09,4.95,1.92,-2.16,30.05
659681,35.87,972.46,368.49,62,-10.44,-13.31,-0.32,0.1,4.97,1.69,-1.96,30.04
659709,35.87,971.98,368.49,56.44,-9.19,-13.88,-0.32,0.07,4.99,1.39,-2.72,30.03
659731,35.87,971.5,382.13,48,-7.25,-14.56,-0.32,0.05,5.03,0.75,-2.9,30.01
659758,35.87,971.5,395.94,42.38,-5.88,-14.81,-0.32,0.07,5.07,0.31,-2.73,29.99
659782,35.88,971.01,395.94,33.88,-3.75,-15,-0.33,0.04,5.12,-0.45,-4.16,29.97
659804,35.88,970.51,409.99,28.12,-2.31,-14.94,-0.31,0.06,5.16,-0.29,-3.77,29.96
659828,35.88,970.51,409.99,22.38,-0.94,-14.69,-0.36,0.07,5.2,-1.82,-3.57,29.94
659850,35.88,970.01,424.17,13.62,1.06,-14.12,-0.34,0.08,5.26,-1.76,-2.83,29.92
659874,35.88,970.01,438.74,7.81,2.38,-13.56,-0.34,0.09,5.29,-1.76,-2.78,29.9
659901,35.88,969.5,438.74,1.88,3.62,-12.88,-0.36,0.1,5.31,-1.98,-2.52,29.88
659923,35.88,968.98,453.51,353,5.31,-11.62,-0.33,0.18,5.38,-1.45,-2.35,29.86
659950,35.88,968.98,468.47,347,6.31,-10.62,-0.35,0.11,5.4,-2.05,-2.22,29.84
659974,35.88,968.45,468.47,338,7.69,-8.94,-0.33,0.11,5.45,-1.82,-2.1,29.82
659996,35.88,967.91,483.69,331.94,8.44,-7.75,-0.32,0.15,5.48,-2.27,-2.08,29.81
660022,35.88,967.91,499.16,325.88,9.12,-6.44,-0.32,0.09,5.51,-2.31,-2,29.8
660049,35.88,967.37,499.16,316.69,9.81,-4.31,-0.33,0.12,5.57,-1.6,-2.2,29.79
660071,35.89,966.81,514.83,310.5,10.06,-2.94,-0.34,0.09,5.6,-1.28,-1.69,29.78
660095,35.89,966.81,530.69,301.25,10.19,-0.69,-0.35,0.11,5.61,-1.04,-1.48,29.77
660122,35.89,966.25,530.69,295,10.06,0.81,-0.38,0.07,5.64,-1.41,-1.01,29.77
660144,35.89,965.69,546.61,285.62,9.62,3,-0.36,0.08,5.68,-0.76,-1.81,29.77
660169,35.89,965.69,562.65,279.38,9.19,4.5,-0.37,0.07,5.71,-1.02,-1.27,29.77
660194,35.89,965.13,562.65,273.06,8.5,5.94,-0.41,0.07,5.76,-2.37,0.14,29.78
660216,35.89,964.56,578.94,263.5,7.25,7.94,-0.44,0.06,5.79,-2.32,-0.16,29.79
660240,35.89,964.56,578.94,257.12,6.19,9.19,-0.48,0.06,5.83,-1.17,0.05,29.8
660262,35.89,963.97,595.48,250.62,5,10.31,-0.43,0.08,5.88,0.32,0.63,19.33
660286,35.89,963.97,612.53,244.12,3.69,11.31,-0.44,0.07,5.92,0.51,0.57,10.62
660314,35.89,963.37,612.53,234.31,1.5,12.5,-0.42,0.14,5.94,1.19,1.16,1.07
660336,35.89,962.77,629.8,224.44,-0.88,13.25,-0.45,0.12,5.96,2.76,1.42,-7.98
660363,35.89,962.77,647.48,217.81,-2.62,13.56,-0.45,0.19,5.97,3.75,-0.99,-11.46
660387,35.9,962.15,647.48,207.88,-5.19,13.69,-0.45,0.13,5.99,3.86,0.9,-15.4
660409,35.9,961.51,665.58,201.25,-6.88,13.5,-0.45,0.13,6.02,4.78,0.47,-15.37
660433,35.9,961.51,665.58,194.56,-8.62,13.19,-0.49,0.13,6.02,4.18,0.27,-15.16
660455,35.9,960.87,683.83,184.5,-11.06,12.25,-0.47,0.19,6.03,5.75,0.72,-16.04
660479,35.9,960.87,702.41,177.81,-12.56,11.38,-0.43,0.12,6,6.06,1.64,-16.83
660506,35.9,960.22,702.41,171.12,-13.94,10.31,-0.39,0.1,5.99,7.26,2.57,-18.04
660528,35.9,959.57,720.87,161.06,-15.75,8.5,-0.48,0.14,5.96,6.69,1.26,-18.5
660555,35.9,959.57,739.18,154.44,-16.75,7.06,-0.4,0.07,5.94,6.98,1.93,-18.79
660611,35.9,958.29,757.56,134.69,-18.62,2,-0.37,0,5.84,4.69,-0.46,-20.11
660668,35.9,957.63,776.27,115.25,-18.44,-3.12,-0.37,0.12,5.76,5.4,-0.12,-20.17
660692,35.9,957.63,795.57,108.81,-18.12,-4.81,-0.36,0.01,5.76,5.09,-0.63,-19.81
660718,35.89,956.96,795.57,102.38,-17.5,-6.5,-0.3,0.04,5.77,4.69,-0.87,-20.3
660743,35.89,956.28,814.88,92.62,-16.25,-8.75,-0.41,0.03,5.78,5.13,-0.66,-19.45
660769,35.89,956.28,834.4,86.12,-15.19,-10.25,-0.32,0,5.8,4.43,-2.91,-19.34
660793,35.89,955.6,834.4,76.44,-13.38,-12.12,-0.32,-0.01,5.79,4.26,-1.13,-19.49
660819,35.89,954.92,853.93,69.94,-12.06,-13.19,-0.34,0,5.82,3.23,-2.28,-19.64
660844,35.89,954.92,853.93,60.19,-9.81,-14.38,-0.38,0.04,5.81,3.21,-2.33,-19.62
660866,35.89,954.23,873.68,53.69,-8.25,-15,-0.29,0.08,5.8,3.27,-1.71,-19.34
660890,35.89,954.23,893.71,47.25,-6.69,-15.44,-0.32,0.21,5.8,1.28,-3.28,-20.25
660917,35.89,953.53,893.71,37.62,-4.06,-15.75,-0.39,-0.01,5.78,2.99,-2.79,-19.7
660939,35.89,952.84,913.75,31.19,-2.44,-15.81,-0.28,0.23,5.78,1.47,-3.76,-19.29
660963,35.89,952.84,933.73,21.5,-0.12,-15.5,-0.37,0.18,5.79,1.06,-1.4,-19.36
660987,35.89,952.14,933.73,15.06,1.44,-15.06,-0.3,0.01,5.78,2.59,-3.92,-19.28
661012,35.89,951.45,953.65,5.56,3.81,-14.19,-0.28,0.06,5.71,1.47,-5.54,-19.64
661036,35.89,951.45,953.65,359.19,5.25,-13.25,-0.39,0.13,5.74,0.2,-0.44,-19.21
661058,35.89,950.75,973.69,352.88,6.56,-12.25,-0.3,0.11,5.7,-0.38,-3.78,-19.38
661083,35.89,950.75,993.94,346.56,7.69,-11.12,-0.37,0.07,5.7,-0.12,-2.46,-18.72
661110,35.89,950.05,993.94,337.06,9.31,-9.12,-0.34,0.04,5.72,-1.04,-2.63,-19.69
661132,35.89,949.34,1014.16,327.62,10.69,-6.81,-0.32,0.07,5.72,-0.33,-1.44,-19.17
661158,35.89,949.34,1034.42,321.31,11.25,-5.25,-0.37,0.06,5.7,-0.12,-2.14,-19.47
661183,35.89,948.64,1034.42,315.06,11.62,-3.56,-0.31,0.1,5.68,-0.53,-0.62,-19.73
661205,35.89,947.94,1054.68,305.69,11.94,-1,-0.35,0.07,5.66,0.88,-0.22,-18.68
661232,35.89,947.94,1074.85,299.44,11.94,0.62,-0.36,0.02,5.64,0.56,-0.62,-18.66
661258,35.89,947.24,1074.85,290.12,11.5,3.12,-0.34,0.04,5.61,0.28,0.82,-18.89
661280,35.89,946.54,1095.04,284,10.94,4.81,-0.39,0.04,5.57,0.62,-2.77,-18.47
661304,35.89,946.54,1115.16,277.88,10.31,6.38,-0.37,0.03,5.57,0.87,1.2,-18.83
661332,35.89,945.84,1115.16,268.69,9,8.5,-0.32,0.1,5.54,1.82,-0.19,-18.84
661354,35.9,945.15,1135.17,259.5,7.44,10.44,-0.39,0.03,5.56,1.11,0.19,-18.32
661379,35.9,945.15,1155.04,253.38,6.12,11.5,-0.33,0.08,5.56,0.45,0.75,-19.1
661404,35.9,944.46,1155.04,247.25,4.81,12.56,-0.42,-0.01,5.54,1.21,0.95,-18.2
661426,35.9,943.78,1174.87,238.06,2.75,13.88,-0.45,0.01,5.52,1.42,0.11,-18.01
661450,35.9,943.78,1194.64,232,1.19,14.56,-0.45,0.08,5.5,0.29,1.88,-18.44
661475,35.9,943.09,1194.64,225.94,-0.38,15.06,-0.45,0.07,5.49,-0.25,2.71,-18.16
661500,35.9,942.42,1214.27,216.81,-2.88,15.56,-0.4,0.01,5.48,1.63,3.75,-18.53
661525,35.9,942.42,1233.96,210.69,-4.56,15.62,-0.44,0.04,5.47,2.68,2.67,-18.02
661550,35.9,941.74,1233.96,201.62,-7.19,15.44,-0.39,0.08,5.45,3.1,1.54,-18
661576,35.9,941.06,1253.55,195.56,-8.88,15,-0.36,0.06,5.42,4.29,3.5,-18.32
661600,35.9,941.06,1253.55,186.56,-11.25,14.06,-0.32,0.09,5.41,4.94,2.25,-17.25
661622,35.9,940.38,1273.14,180.56,-12.75,13.12,-0.29,0.13,5.38,3.72,2.44,-18.41
661646,35.9,940.38,1292.93,174.56,-14.12,12.12,-0.32,0.05,5.33,3.97,0.83,-17.68
661673,35.9,939.7,1292.93,165.69,-15.88,10.25,-0.33,-0.03,5.32,4.99,1.76,-17.63
661695,35.9,939.03,1312.58,159.75,-16.81,8.88,-0.34,-0.06,5.29,5.19,0.23,-17.42
661719,35.9,939.03,1332.04,150.88,-18,6.62,-0.27,0.06,5.29,3.87,0.29,-17.64
661743,35.9,938.36,1332.04,144.94,-18.69,5.06,-0.34,0,5.28,4.4,0,-17.68
661768,35.9,937.69,1351.47,139,-19.12,3.44,-0.3,0.07,5.28,3.99,-0.59,-17.77
661793,35.9,937.69,1351.47,130.12,-19.56,0.94,-0.35,0.07,5.27,3.92,0.02,-16.7
661815,35.9,937.02,1370.88,124.25,-19.62,-0.69,-0.35,0.01,5.22,4.32,-0.77,-17.57
661839,35.9,937.02,1390.39,115.5,-19.38,-3.25,-0.3,0.07,5.18,4.02,-0.74,-17.89
661867,35.9,936.35,1390.39,109.69,-19.06,-4.88,-0.31,0.06,5.2,4,-1.38,-17.13
661889,35.9,935.68,1409.84,100.94,-18.25,-7.31,-0.36,0.05,5.22,4.47,-2.17,-17.15
661915,35.9,935.68,1429.24,95.06,-17.62,-8.81,-0.27,0.2,5.21,4.15,-1.7,-16.84
661940,35.9,935.02,1429.24,86.38,-16.31,-11,-0.28,0.09,5.18,2.29,-3.49,-17.02
661962,35.9,934.35,1448.56,80.56,-15.25,-12.25,-0.27,0.08,5.16,4.13,-1.51,-17.19
661989,35.9,934.35,1467.74,74.81,-14.06,-13.44,-0.28,0.17,5.17,3.68,-2.36,-16.89
662015,35.9,933.7,1467.74,66.19,-12.12,-14.88,-0.32,0.07,5.13,2.91,-2.96,-16.97
662037,35.9,933.04,1486.85,60.44,-10.69,-15.69,-0.27,0.07,5.11,3.83,-3.66,-16.43
662061,35.9,933.04,1505.77,51.88,-8.38,-16.56,-0.28,0.03,5.11,2.98,-3.42,-16.93
662088,35.9,932.39,1505.77,46.25,-6.75,-17,-0.26,0.01,5.1,2.88,-2.63,-16.66
662110,35.9,931.75,1524.53,37.69,-4.38,-17.31,-0.28,0.09,5.09,2.41,-3.76,-16.74
662167,35.9,931.11,1543.18,23.62,-0.31,-17.06,-0.25,0.1,5.04,1.15,-4.07,-16.83
662192,35.9,931.11,1562.37,18.06,1.19,-16.69,-0.31,0.1,5.05,1.78,-2.46,-16.93
662247,35.9,929.81,1581.44,1.31,5.56,-14.69,-0.35,0.02,5.02,0.96,-2.2,-16.98
662272,35.9,929.81,1600.49,355.75,6.94,-13.75,-0.31,0.1,5.01,-0.95,-4.04,-16.35
662296,35.9,929.16,1600.49,347.44,8.69,-12.06,-0.31,0.07,5.01,0,-2.71,-16.56
662322,35.89,928.51,1619.51,341.94,9.75,-10.81,-0.32,0.1,5.02,-0.4,-2.7,-16.51
662346,35.89,928.51,1619.51,333.62,11,-8.81,-0.3,0.09,5,-1.59,-2.66,-16.56
662369,35.89,927.86,1638.44,328.12,11.75,-7.31,-0.34,0.05,5.01,-0.65,-0.88,-16.23
662394,35.89,927.86,1657.45,322.56,12.25,-5.81,-0.33,0.03,4.97,-1.53,-1.64,-16.61
662421,35.89,927.22,1657.45,314.38,12.81,-3.38,-0.33,0.04,4.97,0.22,-2.12,-15.87
662443,35.89,926.57,1676.3,306.25,13.06,-1,-0.32,-0.01,4.92,-0.55,0.79,-16.26
662468,35.89,926.57,1695.03,300.81,13,0.56,-0.31,0.09,4.9,-0.75,0.8,-16.82
662494,35.89,925.94,1695.03,295.44,12.75,2.19,-0.31,0.08,4.91,-0.19,0.33,-16.09
662521,35.89,925.3,1713.58,287.38,12.19,4.44,-0.27,0.05,4.88,0.04,0.05,-16.46
662543,35.89,925.3,1732,279.31,11.31,6.62,-0.3,0.09,4.87,0.4,0.52,-16.13
662567,35.89,924.68,1732,273.94,10.62,8,-0.29,-0.01,4.86,-1.32,1.1,-16.23
662590,35.89,924.06,1750.26,268.56,9.75,9.31,-0.3,0.07,4.86,-0.53,1.4,-16.24
662615,35.89,924.06,1768.4,263.25,8.75,10.5,-0.31,0.01,4.85,0.07,1.73,-15.72
662641,35.89,923.44,1768.4,255.19,7.06,12.12,-0.31,0.07,4.83,0.61,0.94,-16
662663,35.89,922.83,1786.44,247.25,5.25,13.5,-0.31,0.03,4.83,0.37,2.53,-15.82
662687,35.89,922.83,1804.34,241.88,3.88,14.31,-0.31,0.07,4.82,-0.54,1.17,-15.81
662711,35.9,922.22,1804.34,236.56,2.5,14.94,-0.32,0.04,4.81,1.52,1.58,-15.68
662736,35.9,921.62,1822.08,231.25,1,15.44,-0.31,0.07,4.81,0.89,2.13,-15.79
662761,35.9,921.62,1822.08,223.25,-1.19,15.94,-0.29,0.07,4.8,0.61,2.23,-15.76
662783,35.9,921.02,1839.79,217.94,-2.75,16.12,-0.31,0.07,4.78,1.52,2.8,-15.2
662807,35.9,921.02,1857.55,212.69,-4.31,16.12,-0.32,0.04,4.77,2.16,2.03,-15.62
662835,35.9,920.42,1857.55,204.75,-6.56,15.94,-0.3,0.06,4.76,2.21,1.44,-15.84
662857,35.9,919.82,1875.21,196.81,-8.88,15.44,-0.31,0.08,4.77,2.85,2.36,-15.47
662883,35.9,919.82,1892.7,191.5,-10.31,14.94,-0.3,0.1,4.78,3.28,2.06,-15.11
662908,35.9,919.23,1892.7,186.19,-11.75,14.25,-0.31,0.03,4.75,3.01,2.77,-15.71
662930,35.9,918.64,1910.17,178.25,-13.75,13,-0.27,0.08,4.73,4.2,3.17,-15.33
662954,35.9,918.64,1910.17,172.94,-14.94,12,-0.28,0.08,4.71,4.7,2.4,-15.23
662976,35.9,918.05,1927.55,165.12,-16.56,10.31,-0.26,0.05,4.7,5.74,2.09,-14.99
663000,35.9,918.05,1944.97,159.88,-17.5,9,-0.25,0.02,4.69,4.98,0.29,-14.84
663027,35.9,917.46,1944.97,154.62,-18.31,7.62,-0.25,0.05,4.67,4.68,1.04,-15.46
663049,35.9,916.88,1962.18,146.81,-19.19,5.44,-0.26,0.04,4.66,4.69,0.49,-14.68
663076,35.9,916.88,1979.21,141.62,-19.62,3.88,-0.25,0,4.66,4.13,0.03,-14.57
663100,35.9,916.3,1979.21,133.81,-20,1.56,-0.28,-0.05,4.65,3.83,-0.32,-14.75
663122,35.9,915.73,1996.24,128.56,-20,0,-0.27,-0.01,4.63,4.49,-0.21,-14.54
663149,35.9,915.73,2013.11,123.44,-19.94,-1.56,-0.26,0.02,4.63,4.34,-0.48,-14.73
663174,35.9,915.16,2013.11,115.62,-19.56,-3.88,-0.27,-0.01,4.61,4.3,-1.61,-14.78
663197,35.9,914.6,2029.9,110.5,-19.19,-5.38,-0.27,-0.01,4.59,4.76,-1.38,-14.91
663221,35.9,914.6,2046.47,102.81,-18.38,-7.5,-0.28,0.03,4.57,4.15,-2.08,-14.83
663249,35.9,914.04,2046.47,97.69,-17.62,-8.81,-0.27,0.01,4.56,4.6,-1.82,-14.69
663271,35.9,913.48,2062.92,90,-16.38,-10.69,-0.26,0.04,4.57,4.09,-2.5,-14.52
663297,35.9,913.48,2079.25,84.94,-15.38,-11.75,-0.29,0.01,4.55,3.46,-2.21,-14.64
663321,35.9,912.93,2079.25,77.31,-13.75,-13.19,-0.3,-0.02,4.55,4.27,-2.91,-14.44
663343,35.9,912.39,2095.54,72.19,-12.56,-14,-0.32,0,4.54,2.99,-2.01,-14.39
663368,35.9,912.39,2095.54,67.12,-11.31,-14.69,-0.31,0.01,4.53,2.92,-2.75,-14.43
663390,35.9,911.84,2111.7,59.56,-9.38,-15.5,-0.3,0.02,4.5,2.73,-2.66,-14.37
663414,35.9,911.84,2127.88,54.56,-8.06,-15.88,-0.31,0.04,4.49,2.08,-4.01,-14.62
663441,35.9,911.3,2127.88,49.56,-6.69,-16.19,-0.29,0,4.47,2.33,-3.17,-14.6
663463,35.9,910.76,2144.01,42.12,-4.69,-16.44,-0.3,0.04,4.45,1.48,-2.69,-14.49
663490,35.9,910.76,2159.98,37.19,-3.31,-16.38,-0.31,0.01,4.43,2.43,-2.75,-14.9
663515,35.9,910.22,2159.98,29.81,-1.19,-16.12,-0.32,0,4.42,0.99,-2.91,-14.52
663537,35.9,909.69,2175.94,24.94,0.06,-15.81,-0.33,0.03,4.41,0.62,-2.57,-14.43
663561,35.9,909.69,2191.73,20.06,1.38,-15.44,-0.3,0.04,4.41,1.07,-3.64,-14.35
663586,35.9,909.16,2191.73,12.75,3.25,-14.62,-0.33,0.02,4.4,0.11,-3.17,-14.24
663610,35.9,908.63,2207.34,7.88,4.38,-13.94,-0.33,0.02,4.41,-0.16,-2.14,-14.17
663634,35.9,908.63,2207.34,0.56,6,-12.75,-0.33,0.06,4.4,-0.67,-3.17,-13.84
663656,35.91,908.11,2222.91,355.69,7,-11.81,-0.32,0.05,4.41,-0.99,-2.41,-13.99
663713,35.9,907.59,2238.55,343.5,9.06,-9.25,-0.32,0.05,4.41,-0.73,-2.26,-14.36
663737,35.9,907.59,2254.47,336.12,10.06,-7.44,-0.3,0.09,4.43,-1.04,-0.52,-14.28
663762,35.9,907.05,2254.47,331.25,10.56,-6.19,-0.31,0.08,4.44,-1.44,-1.29,-14.29
663786,35.9,906.52,2270.28,323.94,11.12,-4.31,-0.32,0.09,4.44,-1.45,-1.38,-14.24
663844,35.9,906,2286.03,309.31,11.38,-0.38,-0.28,0.11,4.39,-0.25,0.02,-14.24
663868,35.9,906,2302,304.5,11.25,0.88,-0.3,0.09,4.37,-1.64,0.05,-14.44
663895,35.89,905.46,2302,299.69,11,2.12,-0.26,0.1,4.38,0,-0.36,-13.97
663917,35.89,904.94,2317.8,292.44,10.5,3.94,-0.27,0.1,4.36,-0.99,-0.25,-14.23
663944,35.89,904.94,2333.47,287.62,10,5.12,-0.25,0.1,4.36,-0.47,0.57,-14.12
663969,35.89,904.41,2333.47,280.44,9.12,6.75,-0.26,0.08,4.34,-1.01,0.76,-14
663991,35.89,903.89,2349.07,275.69,8.44,7.81,-0.27,0.06,4.32,-1.09,1.69,-14.02
664015,35.89,903.89,2364.48,270.94,7.69,8.75,-0.27,0.04,4.31,-0.37,0.93,-13.91
664040,35.89,903.38,2364.48,263.81,6.38,10.06,-0.27,0.09,4.26,-0.27,1.19,-14.01
664065,35.89,902.87,2379.66,259.12,5.44,10.81,-0.25,0.07,4.25,0.35,1.97,-13.88
664089,35.89,902.87,2379.66,252.06,3.94,11.81,-0.24,0.06,4.24,0.27,1.75,-13.57
664111,35.89,902.36,2394.87,247.44,2.88,12.38,-0.25,0.06,4.22,0.9,0.71,-13.93
664137,35.89,902.36,2410.04,242.75,1.81,12.88,-0.25,0.07,4.21,0.45,1.77,-13.7
664161,35.89,901.86,2410.04,235.81,0.12,13.38,-0.25,0.05,4.19,0.45,1.34,-13.48
664188,35.89,901.36,2425.09,231.12,-0.94,13.62,-0.26,0.01,4.18,1.23,1.09,-13.43
664212,35.89,901.36,2425.09,224.19,-2.69,13.88,-0.27,0.03,4.16,1.46,1.26,-13.22
664234,35.89,900.86,2440.06,219.62,-3.81,13.94,-0.27,0.04,4.15,2.12,1.51,-13.69
664259,35.89,900.86,2455.05,215,-5,13.88,-0.29,0.03,4.14,2,0.99,-13.55
664287,35.89,900.36,2455.05,208.12,-6.69,13.69,-0.31,0.04,4.13,1.67,1.3,-13.53
664309,35.89,899.87,2469.88,201.19,-8.38,13.31,-0.31,0.05,4.13,1.78,1.27,-13.65
664335,35.89,899.87,2484.55,196.56,-9.44,13,-0.33,0.03,4.14,1.64,1.13,-13.36
664360,35.89,899.38,2484.55,192,-10.56,12.56,-0.33,0.06,4.14,2.25,1.92,-13.4
664388,35.89,898.89,2499.15,185.06,-12.12,11.75,-0.33,0.06,4.13,2.86,0.83,-13.39
664410,35.89,898.89,2513.53,178.12,-13.62,10.75,-0.33,0.11,4.13,2.86,0.84,-13.35
664436,35.89,898.42,2513.53,173.5,-14.56,10,-0.33,0.1,4.13,3.14,1.15,-13.14
664458,35.89,897.94,2527.8,168.94,-15.44,9.19,-0.33,0.12,4.09,3.63,0.44,-12.94
664482,35.89,897.94,2541.99,162.06,-16.69,7.81,-0.33,0.11,4.09,4.03,0.72,-13.2
664509,35.89,897.47,2541.99,157.44,-17.38,6.81,-0.33,0.11,4.08,3.04,0.78,-12.86
664531,35.89,897,2556.05,150.62,-18.25,5.19,-0.31,0.12,4.07,4.1,0.04,-12.89
664557,35.89,897,2570.01,146.06,-18.75,4,-0.31,0.1,4.07,3.84,0.07,-12.72
664582,35.89,896.54,2570.01,141.5,-19.19,2.81,-0.3,0.12,4.07,3.9,0.62,-12.72
664604,35.89,896.08,2583.84,134.69,-19.56,0.88,-0.28,0.12,4.04,3.66,-0.01,-13.1
664628,35.89,896.08,2597.61,130.12,-19.75,-0.31,-0.29,0.11,4.02,4.49,-0.74,-13.04
664653,35.9,895.63,2597.61,125.62,-19.81,-1.62,-0.26,0.13,4.01,4.25,-0.59,-12.79
664677,35.9,895.18,2611.2,118.94,-19.69,-3.62,-0.26,0.11,3.98,4.49,-0.61,-12.76
664703,35.9,895.18,2624.77,114.44,-19.5,-4.88,-0.24,0.11,3.97,4.78,-1.21,-12.76
664727,35.9,894.73,2624.77,107.75,-19,-6.81,-0.23,0.1,3.97,4.41,-1.48,-12.7
664753,35.9,894.28,2638.19,103.31,-18.5,-8.06,-0.23,0.08,3.95,4.19,-1.37,-12.57
664777,35.9,894.28,2638.19,96.69,-17.62,-9.75,-0.23,0.07,3.93,3.5,-1.82,-12.75
664799,35.9,893.84,2651.55,92.31,-16.88,-10.88,-0.22,0.07,3.93,3.75,-2.28,-12.75
664823,35.9,893.84,2664.96,87.94,-16.12,-11.88,-0.23,0.06,3.92,3.49,-2.6,-12.71
664849,35.9,893.4,2664.96,81.38,-14.81,-13.31,-0.22,0.04,3.89,3.3,-2.39,-12.77
664874,35.9,892.96,2678.21,77,-13.81,-14.12,-0.22,0.04,3.87,3.14,-2.68,-12.58
664901,35.9,892.96,2691.49,70.56,-12.25,-15.19,-0.22,0.03,3.85,2.16,-2.47,-12.51
664925,35.9,892.52,2691.49,64.12,-10.56,-16.06,-0.21,0.03,3.83,2.19,-3.04,-12.58
664947,35.9,892.09,2704.63,59.81,-9.44,-16.56,-0.21,0.04,3.83,1.96,-2.14,-12.83
664971,35.9,892.09,2704.63,55.56,-8.19,-17,-0.22,0.02,3.82,2.24,-2.74,-12.78
664993,35.9,891.66,2717.66,49.19,-6.38,-17.38,-0.2,0.03,3.8,1.46,-2.34,-12.45
665017,35.9,891.66,2730.69,45,-5.12,-17.56,-0.22,0.02,3.78,0.87,-3.15,-12.57
665044,35.9,891.23,2730.69,40.81,-3.88,-17.62,-0.22,0.01,3.77,1.36,-3.02,-12.68
665066,35.9,890.8,2743.58,34.56,-2,-17.62,-0.21,0.02,3.74,0.57,-2.89,-12.84
665092,35.9,890.8,2756.37,30.38,-0.75,-17.44,-0.21,0.01,3.73,0.78,-2.8,-12.58
665117,35.9,890.38,2756.37,24.19,1,-17.12,-0.21,0.02,3.72,-0.03,-3.37,-12.27
665139,35.9,889.96,2769.1,20.06,2.19,-16.75,-0.21,0.02,3.71,0.18,-2.33,-12.9
665166,35.9,889.96,2781.7,16,3.31,-16.31,-0.21,0.01,3.7,0.05,-3.11,-12.7
665192,35.9,889.55,2781.7,9.88,5,-15.56,-0.21,0,3.69,-0.01,-2.92,-12.68
665247,35.9,889.13,2794.2,357.62,8.06,-13.5,-0.21,0.01,3.68,-0.73,-2.63,-12.56
665271,35.9,889.13,2807.19,353.56,9,-12.69,-0.19,-0.01,3.68,-0.85,-2.47,-12.32
665297,35.9,888.71,2807.19,349.5,9.88,-11.81,-0.2,-0.01,3.68,-1.02,-2.08,-12.55
665321,35.9,888.28,2820.03,343.5,11.06,-10.38,-0.21,-0.02,3.63,-1.28,-1.63,-12.38
665348,35.9,888.28,2832.78,339.5,11.81,-9.31,-0.21,-0.03,3.63,-1.56,-1.72,-12.58
665372,35.89,887.86,2832.78,333.5,12.69,-7.69,-0.21,-0.02,3.61,-1.71,-1.33,-12.65
665398,35.89,887.45,2845.44,329.5,13.19,-6.5,-0.22,-0.01,3.6,-1.92,-1.35,-12.48
665455,35.89,887.03,2858.03,317.62,14.25,-2.81,-0.24,0,3.59,-1.73,-0.91,-12.41
665479,35.89,887.03,2870.85,313.69,14.38,-1.56,-0.24,0.01,3.59,-2,-0.2,-12.53
665506,35.89,886.61,2870.85,307.75,14.44,0.38,-0.25,0,3.58,-2.27,-0.33,-12.43
665528,35.89,886.2,2883.53,301.88,14.31,2.25,-0.25,0,3.57,-1.79,0.67,-12.58
665552,35.89,886.2,2896.01,298,14.12,3.56,-0.25,0,3.56,-1.62,0.07,-12.31
665576,35.88,885.79,2896.01,294.06,13.81,4.81,-0.26,0,3.55,-1.38,0.55,-12.36
665601,35.89,885.38,2908.32,288.25,13.25,6.69,-0.26,0,3.54,-1.61,0.99,-12.33
665625,35.89,885.38,2908.32,284.31,12.75,7.88,-0.26,0.01,3.55,-1.92,1.09,-12.15
665647,35.89,884.98,2920.59,280.44,12.12,9,-0.25,0.01,3.53,-1.59,0.96,-12.09
665671,35.89,884.98,2932.84,276.56,11.5,10.12,-0.27,0.02,3.54,-1.9,1.44,-12.29
665699,35.89,884.58,2932.84,270.75,10.31,11.69,-0.27,0.03,3.53,-1.5,1.87,-12.23
665721,35.89,884.18,2945.01,264.94,9,13.06,-0.27,0.04,3.51,-0.91,1.83,-12.18
665747,35.89,884.18,2957.02,261.06,8.06,13.94,-0.27,0.02,3.5,-0.45,1.95,-12.22
665772,35.89,883.78,2957.02,257.19,7.06,14.75,-0.28,0.04,3.49,-0.43,2.16,-12.21
665800,35.89,883.39,2968.94,251.44,5.5,15.81,-0.27,0.03,3.47,-0.28,2.63,-12.12
665822,35.89,883.39,2980.67,245.69,3.81,16.75,-0.27,0.04,3.46,0.04,2.05,-11.93
665848,35.89,883.01,2980.67,241.88,2.62,17.25,-0.27,0.03,3.45,0.38,2.29,-12.17
665870,35.89,882.63,2992.28,238.12,1.5,17.69,-0.28,0.05,3.44,0.37,3.04,-11.88
665894,35.89,882.63,3003.91,232.38,-0.31,18.19,-0.28,0.05,3.43,0.24,2.32,-12.02
665921,35.89,882.25,3003.91,228.62,-1.56,18.44,-0.27,0.04,3.43,0.44,2.82,-11.96
665943,35.89,881.87,3015.39,222.94,-3.44,18.69,-0.28,0.05,3.42,0.97,2.4,-11.8
665969,35.89,881.87,3026.73,219.12,-4.69,18.69,-0.27,0.06,3.4,1.22,2.72,-11.81
665994,35.89,881.5,3026.73,215.38,-5.94,18.69,-0.29,0.06,3.39,1.43,2.71,-11.77
666016,35.9,881.13,3038.03,209.69,-7.88,18.5,-0.27,0.06,3.39,1.99,3.08,-11.7
666040,35.9,881.13,3049.23,205.94,-9.12,18.31,-0.28,0.07,3.39,2.19,2.86,-11.56
666065,35.9,880.77,3049.23,202.19,-10.38,18,-0.27,0.08,3.39,2.32,3.05,-11.67
666089,35.9,880.41,3060.26,196.5,-12.25,17.38,-0.27,0.07,3.38,2.08,2.43,-11.68
666115,35.9,880.41,3071.31,192.75,-13.44,16.88,-0.27,0.09,3.37,2.87,2.65,-11.53
666139,35.9,880.04,3071.31,187.12,-15.12,16,-0.28,0.1,3.35,2.81,2.44,-11.47
666165,35.9,879.69,3082.22,183.38,-16.25,15.25,-0.26,0.1,3.35,3.52,2.08,-11.61
666189,35.9,879.69,3082.22,177.75,-17.81,14.06,-0.24,0.11,3.34,3.29,2.39,-11.39
666211,35.9,879.33,3093.08,174.06,-18.81,13.12,-0.25,0.11,3.33,3.38,1.97,-11.46
666235,35.9,879.33,3103.95,170.31,-19.75,12.12,-0.23,0.1,3.34,4.03,1.65,-11.29
666261,35.9,878.98,3103.95,164.69,-21,10.5,-0.23,0.11,3.33,3.95,1.51,-11.34
666286,35.9,878.63,3114.69,161,-21.75,9.31,-0.22,0.1,3.32,4.34,1.31,-11.55
666314,35.9,878.63,3125.42,155.44,-22.75,7.5,-0.22,0.1,3.31,4.34,1,-11.25
666338,35.9,878.28,3125.42,149.88,-23.56,5.5,-0.2,0.1,3.28,4.24,0.79,-11.14
666360,35.9,877.93,3136.14,146.19,-23.94,4.12,-0.2,0.09,3.28,4.49,0.74,-11.24
666384,35.9,877.93,3136.14,142.56,-24.25,2.75,-0.2,0.09,3.26,4.46,0.53,-11.14
666406,35.9,877.59,3146.7,137.06,-24.56,0.62,-0.19,0.09,3.26,4.62,-0.19,-11.15
666430,35.9,877.59,3157.25,133.38,-24.69,-0.81,-0.19,0.09,3.25,4.47,-0.28,-11.12
666456,35.9,877.24,3157.25,129.75,-24.69,-2.25,-0.18,0.08,3.25,4.31,-0.55,-11.09
666481,35.9,876.9,3167.74,124.25,-24.5,-4.44,-0.18,0.08,3.24,4.57,-0.79,-11.11
666507,35.9,876.9,3178.21,120.62,-24.25,-5.88,-0.18,0.08,3.23,4.22,-1.02,-11.03
666531,35.9,876.56,3178.21,115.19,-23.75,-7.94,-0.17,0.07,3.22,4.76,-1.78,-10.96
666558,35.9,876.22,3188.58,111.62,-23.25,-9.25,-0.17,0.06,3.21,4.24,-1.56,-11.14
666582,35.9,876.22,3188.58,106.25,-22.38,-11.25,-0.16,0.06,3.19,4.28,-2.22,-11.06
666604,35.9,875.89,3198.86,102.62,-21.75,-12.44,-0.16,0.06,3.19,3.75,-1.82,-10.94
666629,35.9,875.89,3209.15,99.06,-21,-13.62,-0.17,0.05,3.18,3.78,-2.73,-11
666657,35.9,875.55,3209.15,93.69,-19.75,-15.25,-0.17,0.05,3.17,4.08,-2.24,-11.26
666679,35.9,875.22,3219.33,88.38,-18.38,-16.75,-0.16,0.04,3.16,3.58,-2.74,-11.01
666705,35.9,875.22,3229.42,84.88,-17.38,-17.62,-0.16,0.04,3.16,3.17,-3.36,-10.97
666730,35.9,874.89,3229.42,81.31,-16.31,-18.5,-0.16,0.03,3.14,3.08,-3.14,-10.96
666758,35.9,874.57,3239.47,76.06,-14.69,-19.56,-0.16,0.03,3.12,2.96,-3.18,-11.07
666815,35.9,874.24,3249.47,65.69,-11.12,-21.25,-0.16,0.02,3.09,2.13,-3.7,-10.96
666839,35.9,874.24,3259.7,62.19,-9.88,-21.69,-0.16,0.02,3.09,2.14,-3.76,-10.89
666864,35.9,873.91,3259.7,57.06,-8,-22.19,-0.15,0.01,3.07,1.74,-3.69,-11.01
666889,35.9,873.58,3269.77,53.62,-6.69,-22.44,-0.16,0.01,3.07,1.66,-3.83,-10.91
666913,35.9,873.58,3269.77,48.56,-4.75,-22.62,-0.15,0,3.06,1.1,-3.9,-10.98
666935,35.9,873.26,3279.82,45.12,-3.44,-22.69,-0.15,0.01,3.05,1.02,-3.61,-11.01
666961,35.9,873.26,3289.85,41.75,-2.19,-22.69,-0.16,0.01,3.04,0.56,-3.85,-11.01
666985,35.89,872.93,3289.85,36.69,-0.25,-22.5,-0.15,0,3.03,0.5,-3.81,-11.03
667011,35.89,872.61,3299.78,33.38,1,-22.31,-0.16,0,3.03,-0.04,-3.59,-11
667067,35.89,872.29,3309.67,23.38,4.75,-21.31,-0.16,0,3.01,-0.67,-3.86,-10.97
667091,35.89,872.29,3319.66,20,5.94,-20.88,-0.16,-0.01,3,-0.94,-3.58,-10.97
667116,35.89,871.96,3319.66,15.06,7.75,-20,-0.16,-0.01,3.01,-1.18,-3.68,-10.98
667140,35.89,871.64,3329.53,11.69,8.88,-19.38,-0.16,0,3,-1.35,-3.18,-10.98
667165,35.89,871.64,3329.53,6.75,10.5,-18.31,-0.17,-0.01,2.99,-1.62,-3.2,-10.95
667187,35.89,871.33,3339.3,3.44,11.5,-17.5,-0.17,-0.01,2.99,-1.88,-3.11,-11.06
667213,35.89,871.33,3349.02,0.19,12.5,-16.62,-0.17,-0.01,2.98,-2.14,-2.91,-11.03
667237,35.88,871.01,3349.02,355.25,13.81,-15.25,-0.17,0,2.97,-2.19,-2.64,-10.93
667264,35.88,870.7,3358.67,352,14.69,-14.25,-0.17,0,2.95,-2.38,-2.33,-10.95
667288,35.88,870.7,3358.67,347.12,15.81,-12.62,-0.18,-0.01,2.94,-2.4,-2.35,-10.97
667310,35.88,870.39,3368.27,343.94,16.5,-11.5,-0.18,0,2.94,-2.6,-1.85,-10.9
667335,35.88,870.39,3377.83,340.69,17.12,-10.38,-0.18,0,2.92,-2.65,-1.82,-10.95
667363,35.88,870.08,3377.83,335.88,17.94,-8.56,-0.18,0,2.92,-2.74,-1.56,-10.9
667385,35.88,869.77,3387.27,331.12,18.56,-6.69,-0.18,0,2.9,-2.9,-1.22,-11
667411,35.88,869.77,3396.58,327.94,18.88,-5.38,-0.18,0,2.89,-2.92,-1.21,-10.77
667436,35.88,869.47,3396.58,324.75,19.19,-4.06,-0.19,-0.01,2.88,-3.19,-0.69,-10.88
667464,35.88,869.17,3405.84,320,19.44,-2.12,-0.18,0,2.87,-3.03,-0.31,-10.87
667486,35.88,869.17,3414.92,315.31,19.5,-0.12,-0.18,0,2.85,-2.96,-0.14,-10.75
667512,35.89,868.88,3414.92,312.19,19.5,1.12,-0.18,0,2.85,-3.03,0.03,-10.89
667534,35.89,868.59,3423.97,309.06,19.38,2.5,-0.19,0.01,2.84,-3.05,0.28,-10.85
667593,35.89,868.3,3432.92,299.75,18.69,6.38,-0.18,0.01,2.82,-2.91,0.72,-10.73
667618,35.89,868.3,3442.01,296.69,18.25,7.62,-0.19,0.01,2.81,-2.81,0.97,-10.93
667642,35.89,868,3442.01,292.06,17.56,9.44,-0.19,0.01,2.81,-2.63,1.46,-10.82
667668,35.89,867.71,3451,288.94,17.06,10.62,-0.2,0.01,2.81,-2.57,1.61,-10.75
667692,35.89,867.71,3451,284.38,16.12,12.31,-0.2,0.01,2.8,-2.62,1.8,-10.69
667714,35.88,867.43,3459.94,281.31,15.38,13.38,-0.2,0.02,2.8,-2.43,1.96,-10.73
667739,35.88,867.43,3468.84,278.19,14.62,14.44,-0.21,0.01,2.79,-2.3,2.01,-10.64
667767,35.88,867.14,3468.84,273.62,13.44,15.88,-0.21,0.01,2.77,-1.89,2.24,-10.7
667789,35.88,866.85,3477.63,269.06,12.06,17.25,-0.22,0.02,2.76,-1.98,2.24,-10.58
667816,35.88,866.85,3486.33,266.06,11.12,18.06,-0.21,0.02,2.75,-1.58,2.69,-10.68
667841,35.88,866.57,3486.33,261.5,9.62,19.25,-0.22,0.03,2.74,-1.41,3.03,-10.59
667863,35.88,866.3,3494.95,258.5,8.56,19.94,-0.22,0.03,2.74,-1.43,3.09,-10.5
667889,35.88,866.3,3503.48,255.5,7.44,20.56,-0.23,0.03,2.74,-0.87,3.21,-10.6
667916,35.89,866.02,3503.48,251,5.75,21.44,-0.23,0.04,2.73,-0.77,3.23,-10.5
667938,35.89,865.75,3511.88,246.44,4,22.19,-0.23,0.04,2.73,-0.58,3.09,-10.46
667962,35.89,865.75,3520.22,243.44,2.81,22.62,-0.23,0.05,2.72,-0.38,3.43,-10.43
667989,35.89,865.48,3520.22,240.44,1.56,23,-0.23,0.05,2.71,-0.11,3.51,-10.4
668011,35.89,865.21,3528.51,236,-0.25,23.44,-0.23,0.06,2.71,0.03,3.53,-10.41
668037,35.89,865.21,3536.61,233,-1.5,23.62,-0.24,0.07,2.7,0.38,3.52,-10.22
668062,35.89,864.95,3536.61,228.56,-3.44,23.88,-0.23,0.07,2.68,0.6,3.58,-10.34
668084,35.89,864.69,3544.68,225.56,-4.69,23.94,-0.23,0.07,2.67,1.07,3.87,-10.36
668108,35.89,864.69,3552.67,222.62,-5.94,23.94,-0.23,0.08,2.67,1.14,3.77,-10.23
668131,35.9,864.44,3552.67,218.19,-7.88,23.81,-0.22,0.08,2.65,1.73,3.82,-10.19
668155,35.9,864.44,3560.6,215.25,-9.12,23.62,-0.22,0.08,2.65,1.81,3.71,-10.11
668181,35.9,864.18,3560.6,212.31,-10.38,23.44,-0.22,0.09,2.64,2.14,3.54,-10.17
668204,35.9,863.93,3568.48,207.94,-12.25,23,-0.22,0.09,2.64,2.18,3.43,-10.09
668231,35.9,863.93,3576.29,205,-13.5,22.62,-0.21,0.09,2.63,2.36,3.58,-10.06
668255,35.9,863.68,3576.29,200.62,-15.31,21.94,-0.21,0.09,2.63,2.67,3.4,-9.98
668277,35.9,863.43,3583.99,197.69,-16.5,21.38,-0.21,0.09,2.62,2.91,3.39,-9.98
668301,35.9,863.43,3591.6,194.75,-17.62,20.81,-0.2,0.09,2.62,3.19,3.2,-9.96
668327,35.9,863.18,3591.6,190.38,-19.25,19.81,-0.2,0.1,2.61,3.3,2.85,-10
668352,35.9,862.94,3599.12,187.5,-20.31,19.06,-0.18,0.1,2.6,3.52,3,-9.92
668377,35.9,862.94,3606.6,183.12,-21.88,17.81,-0.19,0.1,2.59,3.76,2.57,-9.86
668401,35.9,862.7,3606.6,180.25,-22.81,16.88,-0.18,0.09,2.59,4.18,2.47,-9.81
668426,35.9,862.46,3613.98,175.88,-24.19,15.38,-0.18,0.1,2.58,4.38,2.18,-9.83
668450,35.9,862.46,3613.98,173,-25,14.31,-0.18,0.1,2.58,4.21,2.08,-9.71
668472,35.91,862.23,3621.29,168.69,-26.19,12.62,-0.18,0.1,2.58,4.37,1.85,-9.81
668496,35.91,862.23,3628.57,165.81,-26.88,11.44,-0.17,0.1,2.57,4.52,1.42,-9.77
668523,35.91,862,3628.57,162.94,-27.56,10.19,-0.17,0.1,2.56,4.73,1.44,-9.67
668546,35.91,861.76,3635.77,158.62,-28.38,8.25,-0.16,0.1,2.55,4.72,0.98,-9.71
668573,35.91,861.76,3642.92,155.75,-28.88,6.94,-0.16,0.1,2.54,4.87,0.87,-9.62
668598,35.91,861.54,3642.92,151.44,-29.5,4.88,-0.15,0.1,2.54,4.8,0.44,-9.67
668656,35.91,861.31,3650.05,142.94,-30.25,0.5,-0.14,0.11,2.5,4.92,-0.14,-9.55
668683,35.91,861.31,3657.38,140.12,-30.38,-0.88,-0.14,0.11,2.5,4.95,-0.15,-9.56
668707,35.9,861.07,3657.38,135.94,-30.38,-3.12,-0.14,0.11,2.5,4.99,-0.7,-9.49
668729,35.9,860.84,3664.67,133.12,-30.31,-4.56,-0.13,0.11,2.49,5.01,-0.71,-9.54
668754,35.9,860.84,3664.67,130.31,-30.19,-6.06,-0.13,0.11,2.48,4.91,-1.13,-9.45
668776,35.9,860.61,3671.81,126.12,-29.88,-8.19,-0.12,0.11,2.47,5.07,-1.22,-9.44
668800,35.9,860.61,3678.97,123.38,-29.56,-9.62,-0.12,0.11,2.46,4.87,-1.52,-9.41
668826,35.89,860.38,3678.97,120.56,-29.19,-11.06,-0.11,0.11,2.46,4.82,-1.73,-9.38
668849,35.89,860.15,3686.03,116.44,-28.5,-13.06,-0.11,0.1,2.44,4.59,-1.98,-9.41
668876,35.89,860.15,3693.01,113.69,-27.94,-14.38,-0.1,0.1,2.44,4.56,-2.2,-9.35
668900,35.89,859.93,3693.01,109.56,-27.06,-16.31,-0.1,0.1,2.44,4.5,-2.49,-9.41
668923,35.89,859.71,3699.94,106.81,-26.38,-17.5,-0.09,0.1,2.43,4.33,-2.85,-9.31
668948,35.89,859.71,3706.73,104.12,-25.62,-18.62,-0.09,0.09,2.41,4.4,-2.76,-9.33
668976,35.89,859.49,3706.73,100.06,-24.44,-20.31,-0.08,0.08,2.41,4.26,-3.08,-9.34
668998,35.89,859.27,3713.43,96,-23.12,-21.81,-0.08,0.08,2.4,3.87,-3.34,-9.27
669023,35.89,859.27,3720.1,93.31,-22.19,-22.81,-0.07,0.08,2.39,3.86,-3.59,-9.32
669049,35.9,859.06,3720.1,90.62,-21.25,-23.69,-0.07,0.08,2.37,3.65,-3.76,-9.28
669071,35.9,858.85,3726.71,86.62,-19.69,-24.94,-0.07,0.07,2.37,3.39,-3.88,-9.29
669098,35.9,858.85,3733.14,84,-18.62,-25.69,-0.06,0.06,2.36,3.29,-4.03,-9.33
669158,35.9,858.44,3739.61,74.81,-14.69,-27.94,-0.06,0.05,2.34,2.57,-4.49,-9.26
669182,35.9,858.44,3746.08,72.19,-13.5,-28.5,-0.05,0.04,2.32,2.59,-4.51,-9.29
669207,35.9,858.23,3746.08,69.62,-12.31,-28.94,-0.05,0.03,2.31,2.38,-4.6,-9.29
669231,35.9,858.03,3752.4,65.75,-10.5,-29.56,-0.05,0.03,2.3,1.93,-4.72,-9.28
669256,35.9,858.03,3752.4,63.19,-9.25,-29.88,-0.04,0.02,2.29,1.82,-4.79,-9.27
669278,35.9,857.83,3758.65,60.69,-8,-30.19,-0.04,0.01,2.28,1.5,-4.84,-9.21
669302,35.9,857.83,3764.89,56.88,-6.06,-30.5,-0.04,0,2.27,1.23,-4.94,-9.22
669330,35.9,857.63,3764.89,54.38,-4.81,-30.69,-0.04,0,2.26,1.03,-5.07,-9.28
669352,35.9,857.43,3771.07,50.62,-2.88,-30.81,-0.04,-0.01,2.25,0.69,-4.94,-9.3
669379,35.9,857.43,3777.16,48.12,-1.62,-30.88,-0.04,-0.01,2.24,0.58,-5.01,-9.3
669403,35.9,857.23,3777.16,44.38,0.25,-30.81,-0.04,-0.02,2.23,0.13,-5.03,-9.26
669425,35.9,857.04,3783.18,41.94,1.56,-30.75,-0.04,-0.03,2.22,0.07,-4.93,-9.24
669452,35.9,857.04,3789.15,39.5,2.88,-30.62,-0.05,-0.03,2.21,-0.33,-5.01,-9.22
669479,35.9,856.85,3789.15,35.81,4.81,-30.31,-0.05,-0.04,2.21,-0.51,-4.95,-9.22
669501,35.9,856.66,3795.04,32.19,6.69,-29.94,-0.05,-0.05,2.2,-0.84,-4.89,-9.22
669525,35.9,856.66,3800.83,29.81,7.94,-29.62,-0.05,-0.06,2.19,-1.14,-4.79,-9.27
669552,35.9,856.48,3800.83,27.38,9.19,-29.25,-0.05,-0.06,2.18,-1.26,-4.69,-9.27
669575,35.9,856.3,3806.55,23.81,11.06,-28.56,-0.06,-0.07,2.17,-1.67,-4.73,-9.25
669602,35.9,856.3,3812.2,21.44,12.25,-28.06,-0.06,-0.08,2.16,-1.71,-4.56,-9.24
669628,35.9,856.11,3812.2,17.94,14.06,-27.25,-0.07,-0.08,2.15,-2.22,-4.35,-9.22
669650,35.91,855.93,3817.84,15.56,15.19,-26.62,-0.07,-0.09,2.14,-2.4,-4.19,-9.21
669675,35.91,855.93,3823.38,13.25,16.31,-25.94,-0.08,-0.09,2.13,-2.69,-4.02,-9.21
669702,35.91,855.76,3823.38,9.75,18,-24.81,-0.09,-0.09,2.13,-2.78,-4.07,-9.21
669724,35.91,855.58,3828.83,6.25,19.62,-23.62,-0.09,-0.1,2.12,-3.08,-3.76,-9.24
669748,35.91,855.58,3834.23,3.94,20.62,-22.75,-0.1,-0.1,2.11,-3.25,-3.69,-9.19
669774,35.91,855.41,3834.23,1.69,21.62,-21.81,-0.1,-0.1,2.11,-3.32,-3.47,-9.15
669799,35.91,855.24,3839.58,358.25,23.06,-20.31,-0.1,-0.11,2.1,-3.59,-3.17,-9.22
669824,35.91,855.24,3844.9,356,23.94,-19.25,-0.11,-0.11,2.09,-3.7,-3.08,-9.14
669849,35.91,855.07,3844.9,352.56,25.19,-17.56,-0.12,-0.11,2.08,-3.9,-2.72,-9.18
669873,35.91,854.9,3850.11,350.31,26,-16.38,-0.13,-0.11,2.07,-4.11,-2.56,-9.15
669898,35.91,854.9,3850.11,346.94,27.12,-14.5,-0.14,-0.12,2.06,-4.25,-2.31,-9.14
669920,35.91,854.74,3855.34,344.75,27.81,-13.25,-0.14,-0.11,2.05,-4.32,-2.07,-9.12
669946,35.91,854.74,3860.48,342.5,28.44,-11.88,-0.15,-0.12,2.04,-4.34,-1.82,-9.13
669970,35.91,854.57,3860.48,339.19,29.25,-9.81,-0.16,-0.12,2.03,-4.63,-1.53,-9.07
669997,35.91,854.41,3865.59,337,29.75,-8.38,-0.16,-0.12,2.03,-4.6,-1.26,-9.14
670021,35.91,854.41,3865.59,333.75,30.38,-6.19,-0.17,-0.12,2.02,-4.71,-1.08,-9.09
670043,35.91,854.25,3870.62,331.56,30.75,-4.69,-0.18,-0.12,2.01,-4.72,-0.81,-9.04
670068,35.91,854.25,3875.67,329.38,31,-3.19,-0.19,-0.12,2.01,-4.78,-0.44,-9.04
670095,35.91,854.09,3875.67,326.19,31.31,-0.81,-0.2,-0.12,2,-4.84,-0.21,-9.04
670117,35.91,853.93,3880.62,322.94,31.5,1.44,-0.2,-0.12,1.99,-4.73,0.1,-8.99
670142,35.91,853.93,3885.51,320.81,31.56,3.06,-0.21,-0.12,1.98,-4.85,0.42,-8.98
670166,35.91,853.78,3885.51,318.69,31.56,4.62,-0.21,-0.12,1.97,-4.88,0.56,-8.96
670191,35.91,853.62,3890.35,315.5,31.44,7,-0.22,-0.12,1.96,-5,1,-8.92
670215,35.91,853.62,3890.35,313.44,31.25,8.56,-0.23,-0.11,1.95,-4.84,1.14,-8.91
670273,35.91,853.47,3895.15,307.12,30.38,13.19,-0.24,-0.11,1.93,-4.66,1.8,-8.86
670299,35.91,853.47,3900.11,305.06,30,14.69,-0.25,-0.1,1.92,-4.65,2.13,-8.81
670323,35.9,853.31,3900.11,302,29.25,16.88,-0.26,-0.09,1.92,-4.56,2.36,-8.81
670350,35.9,853.16,3904.98,299.94,28.69,18.31,-0.26,-0.09,1.91,-4.45,2.63,-8.74
670374,35.9,853.16,3904.98,296.81,27.81,20.38,-0.27,-0.08,1.9,-4.43,2.85,-8.71
670396,35.89,853,3909.84,294.81,27.12,21.75,-0.27,-0.08,1.89,-4.16,3.19,-8.66
670420,35.89,853,3914.68,292.75,26.44,23,-0.28,-0.08,1.89,-4.08,3.4,-8.64
670447,35.89,852.85,3914.68,289.69,25.25,24.94,-0.28,-0.07,1.88,-4,3.62,-8.66
670469,35.89,852.7,3919.38,287.69,24.44,26.12,-0.29,-0.07,1.87,-3.75,3.82,-8.56
670493,35.89,852.7,3924.03,284.62,23.12,27.81,-0.29,-0.06,1.87,-3.62,4.02,-8.54
670518,35.89,852.55,3924.03,282.62,22.19,28.94,-0.29,-0.06,1.86,-3.46,4.2,-8.5
670542,35.89,852.4,3928.55,279.62,20.75,30.5,-0.3,-0.05,1.85,-3.27,4.45,-8.45
670567,35.89,852.4,3928.55,277.62,19.75,31.5,-0.31,-0.04,1.84,-3.13,4.63,-8.38
670589,35.89,852.26,3933.07,275.62,18.69,32.44,-0.31,-0.04,1.83,-2.9,4.91,-8.38
670613,35.89,852.26,3937.56,272.69,17.06,33.81,-0.31,-0.03,1.83,-2.74,5.06,-8.32
670641,35.89,852.12,3937.56,270.69,15.94,34.69,-0.31,-0.03,1.83,-2.52,5.19,-8.31
670663,35.89,851.98,3941.9,267.75,14.19,35.88,-0.32,-0.02,1.82,-2.19,5.32,-8.25
670722,35.89,851.84,3946.22,261.81,10.56,38,-0.33,0,1.8,-1.61,5.7,-8.12
670746,35.89,851.84,3950.59,259.88,9.38,38.62,-0.32,0.01,1.8,-1.57,5.8,-8.08
670771,35.89,851.7,3950.59,257.88,8.06,39.25,-0.33,0.01,1.8,-1.27,5.91,-8.01
670796,35.89,851.57,3954.88,254.94,6.12,40.06,-0.33,0.02,1.8,-0.88,6.03,-7.96
670820,35.89,851.57,3954.88,253,4.88,40.56,-0.33,0.03,1.79,-0.76,6.15,-7.93
670842,35.89,851.43,3959.08,250.06,2.88,41.25,-0.33,0.03,1.78,-0.36,6.2,-7.89
670866,35.89,851.43,3963.25,248.12,1.5,41.69,-0.33,0.04,1.78,-0.13,6.35,-7.8
670893,35.89,851.3,3963.25,246.19,0.19,42.06,-0.33,0.05,1.77,0.06,6.29,-7.77
670916,35.88,851.17,3967.32,243.31,-1.81,42.62,-0.33,0.06,1.77,0.43,6.39,-7.68
670943,35.88,851.17,3971.32,241.38,-3.19,42.94,-0.33,0.07,1.76,0.57,6.44,-7.63
670968,35.89,851.04,3971.32,238.44,-5.31,43.31,-0.33,0.08,1.76,0.89,6.47,-7.59
670990,35.89,850.92,3975.27,236.5,-6.69,43.56,-0.33,0.08,1.75,1.3,6.43,-7.54
671016,35.89,850.92,3979.15,234.56,-8.12,43.75,-0.33,0.09,1.75,1.47,6.51,-7.47
671043,35.89,850.8,3979.15,231.69,-10.25,43.94,-0.33,0.1,1.75,1.74,6.52,-7.39
671065,35.89,850.67,3982.95,228.81,-12.38,44.12,-0.32,0.11,1.74,2.09,6.47,-7.32
671090,35.89,850.67,3986.72,226.88,-13.81,44.19,-0.32,0.12,1.74,2.3,6.46,-7.28
671116,35.89,850.56,3986.72,224.94,-15.31,44.19,-0.32,0.13,1.74,2.66,6.36,-7.21
671138,35.89,850.44,3990.41,222.06,-17.44,44.12,-0.31,0.14,1.74,2.95,6.34,-7.14
671165,35.89,850.44,3993.97,220.12,-18.94,44.06,-0.32,0.15,1.73,3.15,6.29,-7.13
671190,35.89,850.32,3993.97,217.25,-21.12,43.94,-0.31,0.16,1.73,3.47,6.19,-7.04
671212,35.9,850.21,3997.49,215.31,-22.56,43.75,-0.3,0.17,1.72,3.83,6.11,-6.94
671237,35.9,850.21,4000.99,213.44,-24,43.56,-0.3,0.17,1.72,4,5.97,-6.9
671262,35.9,850.1,4000.99,210.56,-26.19,43.19,-0.29,0.18,1.71,4.28,5.89,-6.85
671287,35.9,849.99,4004.36,208.62,-27.62,42.88,-0.29,0.19,1.71,4.6,5.71,-6.76
671313,35.9,849.99,4007.71,205.75,-29.81,42.31,-0.28,0.2,1.71,4.8,5.61,-6.7
671339,35.9,849.89,4007.71,203.88,-31.25,41.88,-0.27,0.21,1.7,5.03,5.45,-6.63
671361,35.9,849.78,4010.98,201,-33.38,41.12,-0.27,0.22,1.69,5.23,5.29,-6.59
671385,35.9,849.78,4014.22,199.12,-34.75,40.56,-0.26,0.22,1.69,5.47,5.14,-6.53
671410,35.9,849.68,4014.22,196.31,-36.88,39.62,-0.25,0.23,1.69,5.76,4.87,-6.45
671434,35.91,849.58,4017.36,194.38,-38.25,38.88,-0.24,0.23,1.68,5.96,4.78,-6.39
671459,35.91,849.58,4020.43,192.5,-39.62,38.12,-0.23,0.24,1.68,6.22,4.53,-6.32
671484,35.91,849.48,4020.43,189.69,-41.62,36.81,-0.22,0.25,1.67,6.38,4.3,-6.26
671510,35.91,849.39,4023.47,187.81,-43,35.81,-0.21,0.26,1.67,6.62,4.11,-6.19
671534,35.91,849.39,4023.47,185,-44.94,34.19,-0.2,0.26,1.67,6.81,3.9,-6.12
671556,35.91,849.29,4026.52,183.12,-46.19,33,-0.18,0.27,1.66,7.05,3.53,-6.06
671580,35.91,849.29,4029.49,181.25,-47.44,31.75,-0.18,0.27,1.66,7.13,3.39,-6.01
671607,35.91,849.2,4029.49,178.44,-49.19,29.62,-0.17,0.27,1.65,7.25,3.14,-5.95
671630,35.91,849.1,4032.4,175.69,-50.94,27.25,-0.15,0.28,1.64,7.42,2.81,-5.86
671655,35.91,849.1,4035.22,173.81,-52,25.56,-0.14,0.28,1.64,7.52,2.55,-5.83
671680,35.91,849.02,4035.22,172,-53.06,23.69,-0.13,0.28,1.64,7.67,2.38,-5.77
671705,35.91,848.93,4038,169.25,-54.56,20.69,-0.12,0.29,1.64,7.84,2.03,-5.7
671730,35.91,848.93,4040.77,167.38,-55.44,18.56,-0.11,0.29,1.63,7.91,1.75,-5.64
671752,35.91,848.84,4040.77,164.62,-56.69,15.06,-0.1,0.29,1.63,8.12,1.41,-5.58
671776,35.91,848.84,4043.49,162.81,-57.44,12.62,-0.09,0.29,1.62,8.08,1.15,-5.53
671802,35.91,848.75,4043.49,161,-58.12,10,-0.08,0.29,1.62,8.14,0.83,-5.44
671826,35.91,848.67,4046.11,158.25,-58.94,5.88,-0.06,0.29,1.61,8.22,0.57,-5.41
671881,35.91,848.59,4048.7,152.81,-60.06,-3,-0.04,0.29,1.6,8.38,-0.16,-5.23
671905,35.91,848.59,4051.29,151,-60.25,-6.06,-0.03,0.29,1.6,8.28,-0.46,-5.17
671929,35.9,848.51,4051.29,149.19,-60.38,-9.25,-0.02,0.29,1.6,8.28,-0.7,-5.11
671954,35.9,848.43,4053.77,146.5,-60.31,-14,0,0.29,1.6,8.29,-1.1,-5.09
671979,35.9,848.43,4056.23,144.75,-60.12,-17.12,0.01,0.29,1.59,8.32,-1.35,-4.99
672004,35.9,848.35,4056.23,142.94,-59.88,-20.19,0.02,0.28,1.59,8.29,-1.7,-4.93
672029,35.9,848.27,4058.67,140.25,-59.31,-24.75,0.03,0.28,1.58,8.22,-1.98,-4.88
672054,35.9,848.27,4061.05,138.5,-58.81,-27.62,0.05,0.28,1.58,8.2,-2.36,-4.84
672079,35.9,848.2,4061.05,135.81,-57.88,-31.75,0.06,0.27,1.57,8.18,-2.65,-4.78
672105,35.9,848.12,4063.35,134.06,-57.19,-34.38,0.07,0.27,1.57,8.09,-2.99,-4.7
672129,35.9,848.12,4063.35,131.44,-56,-38.12,0.08,0.27,1.56,7.99,-3.24,-4.64
672151,35.9,848.05,4065.6,129.69,-55.12,-40.44,0.1,0.26,1.56,7.79,-3.63,-4.61
672176,35.9,848.05,4067.78,127.94,-54.19,-42.62,0.1,0.25,1.55,7.76,-3.85,-4.53
672204,35.9,847.98,4067.78,125.38,-52.69,-45.69,0.11,0.25,1.55,7.62,-4.1,-4.45
672264,35.9,847.92,4069.88,119.38,-48.81,-51.88,0.14,0.23,1.53,7.2,-4.91,-4.31
672288,35.9,847.92,4072.03,117.69,-47.62,-53.44,0.15,0.22,1.53,7.09,-5.13,-4.26
672315,35.9,847.85,4072.03,115.94,-46.38,-54.88,0.16,0.22,1.52,6.91,-5.34,-4.23
672338,35.89,847.78,4074.14,113.44,-44.5,-56.88,0.17,0.21,1.51,6.72,-5.7,-4.12
672365,35.89,847.78,4076.12,111.75,-43.25,-58.12,0.18,0.2,1.5,6.57,-5.84,-4.1
672390,35.89,847.72,4076.12,109.31,-41.25,-59.88,0.19,0.19,1.49,6.37,-6.21,-4.03
672412,35.89,847.66,4078.11,107.62,-39.94,-60.94,0.2,0.18,1.49,6.1,-6.45,-3.92
672436,35.89,847.66,4080,106,-38.56,-61.94,0.21,0.18,1.49,5.98,-6.57,-3.91
672462,35.89,847.6,4080,103.56,-36.5,-63.38,0.22,0.16,1.48,5.69,-6.84,-3.88
672486,35.89,847.54,4081.83,101.94,-35.12,-64.25,0.22,0.15,1.47,5.54,-7.02,-3.8
672511,35.89,847.54,4081.83,99.5,-33,-65.5,0.23,0.15,1.46,5.25,-7.24,-3.75
672533,35.89,847.48,4083.63,97.88,-31.62,-66.25,0.24,0.14,1.45,5.08,-7.42,-3.67
672558,35.89,847.48,4085.36,96.31,-30.19,-67,0.24,0.13,1.45,4.73,-7.65,-3.62
672583,35.89,847.43,4085.36,93.94,-28,-68,0.26,0.11,1.44,4.56,-7.76,-3.56
672609,35.89,847.37,4087.1,92.38,-26.56,-68.69,0.26,0.1,1.43,4.25,-8.01,-3.48
672634,35.89,847.37,4087.1,90,-24.44,-69.56,0.26,0.09,1.42,4.04,-8.15,-3.42
672656,35.89,847.32,4088.75,88.5,-23,-70.12,0.27,0.07,1.41,3.69,-8.3,-3.36
672681,35.89,847.32,4090.31,86.94,-21.5,-70.69,0.27,0.07,1.41,3.38,-8.4,-3.3
672708,35.89,847.27,4090.31,84.69,-19.38,-71.5,0.28,0.05,1.4,3.2,-8.53,-3.24
672730,35.89,847.22,4091.85,82.44,-17.19,-72.19,0.28,0.04,1.39,2.83,-8.69,-3.15
672756,35.89,847.22,4093.35,80.94,-15.69,-72.69,0.29,0.03,1.38,2.66,-8.82,-3.12
672781,35.89,847.17,4093.35,79.44,-14.25,-73.12,0.29,0.01,1.37,2.25,-8.87,-3
672803,35.89,847.13,4094.76,77.25,-12.06,-73.75,0.3,0,1.37,2.11,-8.99,-2.99
672830,35.89,847.13,4096.12,75.81,-10.62,-74.19,0.3,-0.01,1.36,1.71,-9.03,-2.91
672857,35.89,847.08,4096.12,73.62,-8.44,-74.75,0.3,-0.02,1.35,1.47,-9.12,-2.84
672879,35.89,847.04,4097.44,72.25,-7,-75.19,0.3,-0.04,1.34,1.14,-9.2,-2.76
672903,35.89,847.04,4098.71,70.06,-4.81,-75.69,0.3,-0.05,1.34,0.82,-9.23,-2.7
672931,35.89,847,4098.71,68.69,-3.38,-76.06,0.3,-0.06,1.34,0.53,-9.24,-2.64
672953,35.9,846.97,4099.88,66.56,-1.19,-76.62,0.3,-0.07,1.34,0.24,-9.31,-2.55
672979,35.9,846.97,4101.03,65.12,0.25,-76.94,0.3,-0.08,1.34,-0.03,-9.33,-2.52
673004,35.9,846.93,4101.03,63,2.44,-77.44,0.3,-0.1,1.34,-0.38,-9.31,-2.43
673026,35.9,846.89,4102.13,61.56,3.94,-77.75,0.3,-0.1,1.34,-0.66,-9.33,-2.35
673051,35.9,846.89,4103.18,60.19,5.44,-78.06,0.3,-0.12,1.34,-0.91,-9.33,-2.28
673073,35.9,846.86,4103.18,58.06,7.62,-78.56,0.3,-0.13,1.33,-1.27,-9.27,-2.23
673097,35.9,846.86,4104.1,56.69,9.12,-78.88,0.3,-0.15,1.33,-1.49,-9.27,-2.16
673123,35.9,846.83,4104.1,55.31,10.62,-79.19,0.29,-0.15,1.33,-1.87,-9.23,-2.04
673148,35.9,846.8,4105.01,53.25,12.81,-79.62,0.29,-0.17,1.33,-2.06,-9.19,-2
673174,35.9,846.8,4105.85,51.88,14.31,-79.94,0.29,-0.18,1.33,-2.49,-9.15,-1.89
673198,35.9,846.78,4105.85,49.75,16.56,-80.38,0.28,-0.2,1.34,-2.66,-9.03,-1.85
673224,35.9,846.75,4106.7,48.38,18.06,-80.69,0.28,-0.21,1.33,-3.06,-8.98,-1.75
673249,35.9,846.75,4106.7,46.38,20.31,-81.19,0.28,-0.21,1.33,-2.51,-7.7,-2.65
673271,35.9,846.74,4107.06,44.94,21.75,-81.44,0.24,-0.2,1.32,-4.23,-9.15,-0.33
673295,35.9,846.74,4107.47,43.56,23.25,-81.75,0.26,-0.25,1.33,-3.82,-8.89,-1.49
673323,35.9,846.73,4107.47,41.56,25.5,-82.25,0.26,-0.27,1.32,-3.84,-8.51,-1.51
673345,35.9,846.71,4107.91,39.56,27.75,-82.69,0.25,-0.26,1.32,-4.63,-8.46,-1.35
673370,35.9,846.71,4108.36,38.19,29.25,-83.06,0.24,-0.29,1.32,-4.57,-8.33,-1.29
673395,35.9,846.7,4108.36,36.88,30.75,-83.38,0.24,-0.28,1.32,-5.09,-8.06,-1.21
673421,35.9,846.68,4108.86,34.88,33,-83.94,0.23,-0.3,1.32,-5.15,-8.04,-1.15
673446,35.9,846.68,4109.29,33.5,34.5,-84.31,0.22,-0.31,1.32,-5.59,-7.79,-1.04
673502,35.9,846.67,4109.29,29.5,38.94,-85.56,0.21,-0.33,1.31,-5.97,-7.45,-0.86
673527,35.9,846.67,4109.64,28.19,40.44,-86,0.19,-0.34,1.32,-6.33,-7.21,-0.78
673552,35.9,846.66,4109.64,26.25,42.62,-86.69,0.18,-0.35,1.31,-6.48,-7.03,-0.68
673578,35.89,846.65,4109.99,24.88,44.12,-87.19,0.17,-0.36,1.32,-6.79,-6.81,-0.61
673602,35.89,846.65,4110.26,22.94,46.38,-88,0.17,-0.37,1.32,-6.93,-6.62,-0.51
673624,35.89,846.64,4110.26,21.62,47.81,-88.56,0.15,-0.38,1.31,-7.2,-6.41,-0.44
673648,35.89,846.64,4110.54,20.31,49.31,-89.19,0.14,-0.38,1.32,-7.36,-6.19,-0.33
673676,35.89,846.63,4110.54,18.38,51.5,-90.19,0.14,-0.39,1.31,-7.64,-5.99,-0.31
673698,35.89,846.62,4110.71,16.44,53.62,-91.31,0.12,-0.4,1.31,-7.81,-5.72,-0.19
673723,35.89,846.62,4110.92,15.12,55.06,-92.12,0.11,-0.41,1.31,-7.93,-5.54,-0.1
673748,35.89,846.62,4110.92,13.88,56.5,-93,0.1,-0.41,1.3,-8.12,-5.21,0.01
673774,35.89,846.61,4111.05,11.94,58.62,-94.44,0.09,-0.42,1.3,-8.27,-5.04,0.07
673830,35.89,846.61,4111.16,8.12,62.75,-98.06,0.06,-0.43,1.29,-8.62,-4.41,0.33
673854,35.89,846.61,4111.17,6.88,64.06,-99.5,0.05,-0.43,1.28,-8.75,-4.21,0.4
673880,35.89,846.61,4111.17,5.62,65.38,-101.06,0.03,-0.43,1.28,-8.9,-3.87,0.52
673905,35.89,846.61,4111.1,3.81,67.31,-103.75,0.01,-0.44,1.27,-8.9,-3.65,0.6
673930,35.89,846.61,4111,2.56,68.56,-105.88,-0.01,-0.44,1.27,-9.04,-3.32,0.69
673955,35.88,846.61,4111,0.75,70.31,-109.44,-0.01,-0.45,1.26,-9.11,-3.12,0.77
673981,35.89,846.62,4110.85,359.56,71.44,-112.19,-0.03,-0.45,1.26,-9.25,-2.81,0.9
674005,35.89,846.62,4110.85,357.75,73.06,-117,-0.04,-0.45,1.27,-9.33,-2.56,0.97
674028,35.89,846.62,4110.68,356.56,74.06,-120.75,-0.06,-0.45,1.26,-9.37,-2.24,1.09
674052,35.89,846.62,4110.46,355.38,74.94,-124.94,-0.07,-0.45,1.26,-9.38,-2,1.18
674080,35.89,846.63,4110.46,353.62,76.12,-132.12,-0.09,-0.45,1.26,-9.49,-1.8,1.23
674102,35.89,846.64,4110.16,351.81,77.06,-140.5,-0.1,-0.44,1.25,-9.58,-1.42,1.35
674128,35.89,846.64,4109.81,350.69,77.5,-146.62,-0.11,-0.44,1.25,-9.57,-1.22,1.42
674153,35.89,846.65,4109.81,349.5,77.75,-153.12,-0.13,-0.44,1.25,-9.6,-0.85,1.57
674175,35.89,846.66,4109.43,347.75,77.88,-163.12,-0.14,-0.44,1.25,-9.59,-0.65,1.64
674200,35.89,846.66,4109.43,346.62,77.69,-169.69,-0.15,-0.43,1.25,-9.58,-0.42,1.72
674222,35.89,846.68,4108.99,344.94,77.19,-179.06,-0.17,-0.43,1.24,-9.55,-0.06,1.82
674246,35.89,846.68,4108,343.81,76.69,175.19,-0.18,-0.42,1.25,-10.22,1.76,2.41
674273,35.89,846.71,4108,342.62,76.06,169.94,-0.16,-0.39,1.25,-0.86,-1.38,-36.65
674295,35.89,846.73,4107.27,340.88,74.94,163,-0.18,-0.34,1.25,-10.12,0.34,-0.7
674322,35.89,846.73,4106.68,339.62,74.19,158.75,-0.17,-0.29,1.28,-9.62,1.2,2.06
674347,35.89,846.75,4106.68,337.88,72.88,153.12,-0.2,-0.29,1.28,-9.45,1.37,2.12
674369,35.89,846.77,4106.03,336.69,71.88,149.94,-0.21,-0.3,1.28,-9.31,1.64,2.31
674395,35.89,846.77,4105.32,335.5,70.88,147.06,-0.23,-0.29,1.27,-9.12,1.72,2.27
674417,35.89,846.77,4105.32,333.75,69.25,143.44,-0.23,-0.29,1.27,-9.04,1.88,2.96
674439,35.89,846.77,4105.32,332.62,68.19,141.31,-0.25,-0.28,1.26,-9.13,2.15,2.48
674461,35.89,846.77,4105.32,331.5,67.06,139.5,-0.26,-0.28,1.24,-8.96,2.65,2.3
674483,35.89,846.77,4105.32,330.38,65.94,137.94,-0.27,-0.28,1.25,-8.92,2.66,2.45
674505,35.89,846.77,4105.32,328.75,64.19,135.81,-0.29,-0.28,1.24,-8.75,2.8,2.53
674527,35.89,846.77,4105.32,327.69,63,134.62,-0.3,-0.27,1.24,-8.69,3.08,2.36
674549,35.89,846.77,4105.32,326.62,61.81,133.56,-0.31,-0.27,1.21,-8.26,3.26,2.54
674571,35.89,846.77,4105.32,325.62,60.62,132.62,-0.32,-0.26,1.18,-9.08,3.48,2.4
674593,35.89,846.77,4105.32,324.62,59.5,131.88,-0.34,-0.27,1.17,-8.57,3.69,2.54
674615,35.89,846.77,4105.32,323.19,57.75,130.94,-0.35,-0.27,1.13,-8.24,3.68,2.78
674637,35.89,846.77,4105.32,322.31,56.62,130.44,-0.37,-0.27,1.11,-8.14,4.11,2.74
674659,35.89,846.77,4105.32,321.38,55.5,130,-0.38,-0.27,1.13,-8.04,4.29,2.79
674681,35.89,846.77,4105.32,320.44,54.31,129.56,-0.4,-0.27,1.15,-7.92,4.24,2.87
674703,35.89,846.77,4105.32,319.56,53.12,129.25,-0.41,-0.27,1.14,-7.87,4.43,2.9
674725,35.89,846.77,4105.32,318.69,52,129,-0.42,-0.25,1.13,-7.8,4.79,3.01
674747,35.89,846.77,4105.32,317.44,50.31,128.62,-0.42,-0.25,1.07,-7.48,4.9,3.05
674769,35.89,846.77,4105.32,316.62,49.19,128.5,-0.43,-0.25,1.06,-6.97,5.07,2.95
674791,35.89,846.77,4105.32,315.88,48.19,128.44,-0.44,-0.22,0.99,-7.11,5.05,3.13
674813,35.89,846.77,4105.32,315.19,47.19,128.38,-0.44,-0.21,0.99,-7.16,5.25,3.22
674835,35.89,846.77,4105.32,314.5,46.19,128.31,-0.45,-0.2,0.99,-6.76,5.44,3.14
674857,35.89,846.77,4105.32,313.44,44.62,128.31,-0.46,-0.2,1,-6.79,5.58,3.2
674879,35.89,846.77,4105.32,312.75,43.62,128.25,-0.45,-0.18,1.08,-6.98,5.73,3.46
674901,35.89,846.77,4105.32,311.81,42.44,128.12,-0.44,-0.17,1.23,-6.52,5.81,3.43
674923,35.89,846.77,4105.32,310.94,41.31,128,-0.44,-0.15,1.19,-6.24,5.82,2.91
674945,35.89,846.77,4105.32,310.06,40.19,127.94,-0.44,-0.13,1.15,-6.23,6.09,3.61
674967,35.89,846.77,4105.32,309.25,39.12,127.88,-0.45,-0.11,1.16,-6.06,6.01,3.82
674989,35.89,846.77,4105.32,308,37.5,127.81,-0.45,-0.11,1.12,-5.92,6.11,3.88
675049,35.89,846.77,4105.32,306.06,34.69,128,-0.45,-0.09,0.94,-5.14,6.27,3.78
675071,35.89,846.77,4105.32,305.5,33.81,128.12,-0.45,-0.08,0.92,-5.31,6.66,3.97
675093,35.89,846.77,4105.32,304.88,33,128.25,-0.45,-0.08,0.93,-5.12,6.59,4.09
675115,35.89,846.77,4105.32,304.31,32.12,128.44,-0.45,-0.08,0.9,-5.07,6.68,4.18
675137,35.89,846.77,4105.32,303.81,31.31,128.56,-0.43,-0.06,0.88,-4.87,6.54,4.25
675159,35.89,846.77,4105.32,303.31,30.56,128.69,-0.4,-0.04,0.78,-4.72,6.38,4.24
675181,35.89,846.77,4105.32,302.69,29.56,128.88,-0.35,-0.03,0.69,-4.58,6.27,4.39
675203,35.89,846.77,4105.32,302.31,29,129,-0.32,-0.03,0.63,-4.28,6.04,4.42
675225,35.89,846.77,4105.32,301.94,28.44,129.12,-0.27,-0.01,0.58,-4.16,5.99,4.52
675281,35.89,846.77,4105.32,300.94,27.12,129.19,-0.15,0.01,0.45,-4.35,5.85,4.67
675303,35.89,846.77,4105.32,300.69,26.88,129.19,-0.06,0,0.28,-4.62,5.29,4.54
675325,35.89,846.77,4105.32,300.44,26.75,129.12,0.03,-0.03,0.09,-4.73,5.48,4.67
675347,35.89,846.77,4105.32,300.25,26.69,129.06,0.08,-0.06,-0.02,-4.66,6.08,4.84
675369,35.89,846.77,4105.32,300.12,26.69,129,0.15,-0.08,-0.13,-3.63,3.44,5.28
675391,35.89,846.77,4105.32,300.06,27,128.81,0.4,-0.07,-0.56,-4.1,5.71,4.78
675413,35.89,846.77,4105.32,300.12,27.69,128.5,0.43,-0.07,-0.61,-4.28,5.76,4.5
675435,35.89,846.77,4105.32,300.19,28.19,128.25,0.48,-0.07,-0.69,-3.87,4.14,4.25
675457,35.89,846.77,4105.32,300.38,28.88,127.94,0.6,-0.05,-0.87,-4.38,4.68,3.84
675479,35.89,846.77,4105.32,300.62,29.69,127.62,0.65,-0.05,-0.98,-4.79,5.3,3.8
675501,35.89,846.77,4105.32,300.88,30.56,127.31,0.68,-0.05,-1.05,-5.08,5.39,3.68
675523,35.89,846.77,4105.32,301.31,31.94,126.88,0.67,-0.06,-1.07,-5.13,5.36,3.59
675545,35.89,846.77,4105.32,301.62,32.88,126.62,0.65,-0.08,-1.09,-5.16,5.19,3.45
675567,35.89,846.77,4105.32,301.94,33.81,126.5,0.62,-0.09,-1.13,-5.29,5.01,3.37
675589,35.89,846.77,4105.32,302.31,34.69,126.38,0.58,-0.12,-1.11,-5.31,5.14,3.29
675611,35.89,846.77,4105.32,302.69,35.62,126.38,0.52,-0.14,-1.08,-5.58,5.17,3.33
675633,35.89,846.77,4105.32,303.06,36.44,126.5,0.41,-0.18,-1.02,-5.57,5.11,3.36
675655,35.89,846.77,4105.32,303.56,37.56,126.81,0.33,-0.21,-0.97,-5.76,4.77,3.26
675677,35.89,846.77,4105.32,304,38.31,127.19,0.26,-0.25,-0.98,-5.67,4.72,3.32
675699,35.89,846.77,4105.32,304.44,38.94,127.69,0.17,-0.29,-0.94,-5.6,4.59,3.24
675721,35.89,846.77,4105.32,304.88,39.5,128.25,0.09,-0.32,-0.91,-5.75,4.42,3.3
675743,35.89,846.77,4105.32,305.38,40.06,129,-0.03,-0.38,-0.9,-5.87,4.33,3.38
675765,35.89,846.77,4105.32,305.94,40.56,129.88,-0.11,-0.42,-0.88,-6,4.15,3.41
675787,35.89,846.77,4105.32,306.88,41.12,131.44,-0.18,-0.45,-0.84,-5.96,4.14,3.53
675809,35.89,846.77,4105.32,307.56,41.5,132.56,-0.26,-0.48,-0.81,-6.07,4.1,3.63
675831,35.89,846.77,4105.32,308.25,41.69,133.81,-0.34,-0.51,-0.75,-6.12,3.98,3.74
675853,35.89,846.77,4105.32,309.06,41.88,135.12,-0.42,-0.53,-0.72,-6.25,3.82,3.77
675875,35.89,846.77,4105.32,309.88,41.94,136.5,-0.51,-0.55,-0.54,-6.26,3.89,3.92
675897,35.89,846.77,4105.32,311,41.81,138.5,-0.57,-0.56,-0.46,-6.2,3.88,4.08
675919,35.89,846.77,4105.32,311.81,41.69,139.88,-0.63,-0.56,-0.42,-6.32,3.76,3.87
675941,35.89,846.77,4105.32,312.69,41.44,141.25,-0.69,-0.56,-0.33,-6.38,3.79,3.9
675963,35.89,846.77,4105.32,313.56,41.12,142.56,-0.74,-0.54,-0.23,-6.47,3.68,3.97
675985,35.89,846.77,4105.32,314.5,40.75,143.88,-0.81,-0.52,-0.09,-6.33,3.56,4.02
676007,35.89,846.77,4105.32,316,40.12,145.75,-0.84,-0.5,-0.06,-5.53,2.94,2.66
676029,35.89,846.77,4105.32,317.12,39.75,146.94,-0.83,-0.44,-0.03,-5.78,3.2,4.09
676051,35.89,846.77,4105.32,318.25,39.38,148,-0.83,-0.37,0.08,-4.59,3.19,3.46
676073,35.89,846.77,4105.32,319.31,39,148.94,-0.83,-0.25,0.25,-3.19,3.74,3.04
676095,35.89,846.77,4105.32,320.44,38.56,149.5,-0.86,-0.07,0.58,-4.03,3.78,4.33
676117,35.89,846.77,4105.32,321.5,38.19,149.94,-0.88,0.08,0.8,-4.71,3.71,4.72
676139,35.89,846.77,4105.32,79.56,37.75,150.19,-0.87,0.27,1,-5.22,3.69,5.03
676161,35.89,846.77,4105.32,80.69,37.44,150.19,-0.85,0.35,1.05,-4.79,3.65,4.82
676183,35.89,846.77,4105.32,81.88,37.25,150.12,-0.81,0.43,1.09,-4.66,3.82,4.71
676205,35.89,846.77,4105.32,83,37.12,150,-0.77,0.52,1.15,-4.54,3.94,4.7
676227,35.89,846.77,4105.32,84.06,37,149.69,-0.72,0.58,1.2,-4.14,3.51,4.28
676249,35.89,846.77,4105.32,85.5,36.88,149.06,-0.6,0.68,1.21,-4.26,3.51,4.03
676271,35.89,846.77,4105.32,86.38,36.88,148.44,-0.5,0.73,1.18,-4.34,3.69,4.14
676293,35.89,846.77,4105.32,87.06,36.94,147.75,-0.39,0.75,1.12,-4.47,3.99,4.33
676315,35.89,846.77,4105.32,87.56,37,147.06,-0.29,0.74,1.06,-4.48,4.13,4.23
676337,35.89,846.77,4105.32,87.94,37.06,146.25,-0.19,0.72,0.98,-4.41,4.27,4.14
676359,35.89,846.77,4105.32,88.12,37.12,145.38,-0.03,0.63,0.82,-4.24,4.18,3.68
676381,35.89,846.77,4105.32,88.12,37.19,144.19,0.04,0.57,0.69,-4.38,4.47,3.92
676403,35.89,846.77,4105.32,88.06,37.25,143.38,0.1,0.5,0.57,-4.37,4.52,3.72
676425,35.89,846.77,4105.32,87.88,37.31,142.69,0.16,0.42,0.42,-4.2,4.36,2.93
676447,35.89,846.77,4105.32,87.75,37.5,142.06,0.25,0.35,0.21,-4.05,4.48,3.82
676506,35.89,846.77,4105.32,87.12,38.12,140.81,0.33,0.09,-0.2,-4.01,4.11,3.09
676528,35.89,846.77,4105.32,86.88,38.31,140.62,0.33,0.01,-0.28,-4.33,4.62,4.76
676550,35.89,846.77,4105.32,86.62,38.56,140.56,0.35,-0.11,-0.45,-4.52,4.38,4.52
676572,35.89,846.77,4105.32,86.19,38.88,140.56,0.34,-0.21,-0.52,-5.5,2.36,-1.82
676594,35.89,846.77,4105.32,85.88,39.06,140.81,0.34,-0.29,-0.6,-5.09,4.88,3.58
676616,35.89,846.77,4105.32,85.5,39.19,141,0.32,-0.36,-0.59,-4.91,1.88,1.44
676638,35.89,846.77,4105.32,84.75,39.06,141.19,0.35,-0.43,-0.36,-5.46,2.37,1.38
676697,35.89,846.77,4105.32,76.44,35.06,138.62,0.33,-0.61,1.41,-1.78,4.71,1.92
676719,35.89,846.77,4105.32,73.31,33.38,137.69,0.22,-0.55,1.77,-4.33,3.86,3.22
676741,35.89,846.77,4105.32,70.12,31.5,136.81,0.1,-0.49,1.92,-0.65,4.04,1.56
676763,35.89,846.77,4105.32,65.44,28.62,135.62,-0.02,-0.44,2.1,-2.66,4.5,3.87
676785,35.89,846.77,4105.32,62.31,26.56,135.06,-0.15,-0.46,2.23,-3.54,4.93,4.17
676807,35.89,846.77,4105.32,59.25,24.44,134.69,-0.27,-0.49,2.22,-3.69,4.87,3.92
676829,35.89,846.77,4105.32,56.19,22.31,134.44,-0.39,-0.48,2.27,-2.88,4.49,3.81
676851,35.89,846.77,4105.32,53.19,20.12,134.38,-0.46,-0.45,2.31,-2.14,5.15,3.55
676873,35.89,846.77,4105.32,50.25,18,134.44,-0.53,-0.38,2.3,-2.9,5.43,4.75
676895,35.89,846.77,4105.32,46.12,14.81,134.81,-0.67,-0.32,2.34,-2.71,5.39,4.96
676917,35.89,846.77,4105.32,43.5,12.81,135.19,-0.71,-0.25,2.27,-2.11,3.38,2.34
676939,35.89,846.77,4105.32,41.06,10.94,135.62,-0.67,-0.2,2.14,-1.94,4.86,1.36
676961,35.89,846.77,4105.32,192.19,9.56,136.06,-0.55,0.15,1.67,2.19,-2.13,-20.36
676983,35.89,846.77,4105.32,193.25,9.5,136.12,-0.07,0.76,0.35,5.21,2.96,-5.88
677005,35.89,846.77,4105.32,45,10.94,135.75,0.13,1.35,-0.08,8.24,1,-8.89
677027,35.89,846.77,4105.32,49.75,12.75,135.19,0.36,1.89,-0.69,8.88,0.87,-11.1
677049,35.89,846.77,4105.32,56.31,15.56,134.38,0.68,2.5,-1.58,10.64,-4.32,-20.42
677071,35.89,846.77,4105.32,64.81,19.69,133.12,0.94,3.34,-2.31,27.08,-9.61,-32.68
677093,35.89,846.77,4105.32,75.44,25.31,131.19,1.19,4.83,-2.89,32.11,-1.79,-32.84
677115,35.89,846.77,4105.32,87.56,32.06,128.19,1.02,7.07,-2.78,10.75,3.48,-14.98
677137,35.89,846.77,4105.32,105.06,42.69,121.06,0.63,7.5,-2.69,9.24,3.5,-14.77
677159,35.89,846.77,4105.32,115.31,49.25,114.31,0.21,7.71,-2.52,19.88,0.92,-20.92
677181,35.89,846.77,4105.32,124.75,54.94,104.62,-0.11,8.28,-2.69,15.5,2.67,-19.13
677203,35.89,846.77,4105.32,134.44,60,90.94,-0.52,8.73,-3.67,21.55,6.1,-27.68
677225,35.89,846.77,4105.32,144.62,63.19,71.25,-1.09,9.8,-4.49,30.52,11.55,-32.37
677247,35.89,846.77,4105.32,160.56,57.62,37.88,-3.06,13.09,-4.42,30.99,33.3,-34.79
677269,35.89,846.77,4105.32,170.25,44.31,28.12,-5.73,17.02,-2.01,32.42,37.46,-45.18
677291,35.89,846.77,4105.32,177.38,25.12,29.12,-7.56,20.15,0.95,15.92,15.94,-46.77
677345,35.89,846.77,4105.32,191.75,-25.75,50.94,-6.33,22.16,2.35,-33.72,0.37,-43.18
677367,35.89,846.77,4105.32,198.38,-40.06,69.5,-4.42,19.67,3.23,-32.28,-0.35,-27.57
677389,35.89,846.77,4105.32,207.19,-48.69,105.75,-2.9,16.62,5.25,-27.09,4.7,-29.51
677411,35.89,846.77,4105.32,212.44,-47.25,128,-1.22,14.84,6.64,-25.98,4.84,-25.89
677433,35.89,846.77,4105.32,219.62,-41.81,144.38,0.54,13.46,7.8,-24.48,8.11,-19.17
677455,35.89,846.77,4105.32,167.06,-34.88,154.38,2.2,11.82,8.79,-11.61,9.75,-13.73
677477,35.89,846.77,4105.32,180.38,-28,159.25,3.65,10.16,9.14,-9.51,11.86,-13.36
677499,35.89,846.77,4105.32,193.19,-22.06,160.19,5.21,7.93,8.7,-2.68,9.76,-10.21
677521,35.89,846.77,4105.32,210.94,-15.81,156.88,5.91,6.64,8.09,0.78,7.37,-9.62
677543,35.89,846.77,4105.32,221.69,-13.56,152.56,6.44,5.53,7.45,2.86,5.67,-7.67
677565,35.89,846.77,4105.32,231.81,-12.81,147.25,6.91,4.58,6.87,4.23,4,-6.18
677587,35.89,846.77,4105.32,240.38,-13.12,140.94,7.35,3.34,4.75,5.16,2.73,-7.53
677609,35.89,846.77,4105.32,29.94,-13.38,134,7.28,2.6,2.2,6.21,3.23,-7.3
677631,35.89,846.77,4105.32,43.19,-12.19,123.12,7.02,2.42,0,4.69,3.77,-6.94
677653,35.89,846.77,4105.32,51.88,-9.62,116,6.62,2.49,-1.63,4.41,3.91,-6.71
677675,35.89,846.77,4105.32,60.69,-5.75,109.25,6.14,2.71,-2.98,3.28,4.41,-6.44
677697,35.89,846.77,4105.32,69.94,-0.62,103.06,5.57,2.99,-4.33,2.37,4.5,-6.3
677719,35.89,846.77,4105.32,79.5,5.44,97.25,4.59,3.43,-5.64,2.63,4.61,-6.23
677741,35.89,846.77,4105.32,89.38,12.25,91.81,3.88,3.67,-6.64,0.94,4.25,-6.25
677763,35.89,846.77,4105.32,105.25,23.88,83.81,3.13,3.85,-7.63,0.39,4.26,-6.31
677785,35.89,846.77,4105.32,116.88,32.5,77.81,2.35,3.94,-8.87,-0.1,3.81,-6.58
677807,35.89,846.77,4105.32,129.88,42.06,70.38,1.51,3.9,-10.52,-1.32,2.51,-6.5
677829,35.89,846.77,4105.32,144.56,52.38,59.12,0.66,3.69,-12.53,-2.41,0.55,-6.48
677851,35.89,846.77,4105.32,161.44,62,38.31,-0.4,2.81,-15.93,-4.28,-2.42,-5.59
677873,35.89,846.77,4105.32,189.56,63.25,-16.62,-0.96,2.12,-16.51,-7.24,-3.34,-5.68
677895,35.89,846.77,4105.32,207.88,53.06,-39.5,-1.38,1.36,-15.94,-7.24,-3.59,-5.6
677917,35.89,846.77,4105.32,226,39.94,-50.44,-1.54,0.51,-15.89,-5.39,-5.89,-5.25
677976,35.89,846.77,4105.32,284,-5.19,-57.94,-0.47,-1.34,-17.37,-4.18,-8.83,-4.96
677998,35.89,846.77,4105.32,303.94,-20.19,-55.19,0.05,-1.56,-17.19,-13.78,-4.66,-4.32
678020,35.89,846.77,4105.32,323.81,-33.81,-48.81,0.54,-1.97,-16.9,-11.87,-6.99,-3.91
678042,35.89,846.77,4105.32,343.56,-44.75,-37.38,1.17,-2.3,-16.59,-6.65,-9.49,-3.36
678064,35.89,846.77,4105.32,12.75,-52.38,-9.81,2.25,-2.2,-16.16,1.52,-7.37,-5.98
678086,35.89,846.77,4105.32,31.81,-50.44,9.75,2.63,-1.57,-15.89,2.82,-5.44,-6.3
678108,35.89,846.77,4105.32,50.56,-44.06,24.62,2.77,-0.81,-15.8,2.95,-4.44,-6.79
678130,35.89,846.77,4105.32,69,-35.12,34.06,2.68,-0.14,-15.67,2.64,-2.26,-7.29
678152,35.89,846.77,4105.32,87.31,-24.88,39.56,2.41,0.4,-15.77,2.01,-0.41,-7.6
678174,35.89,846.77,4105.32,105.69,-13.88,42.12,1.75,0.82,-16.08,1.24,0.39,-7.51
678196,35.89,846.77,4105.32,133.06,3.06,41.56,1.26,0.81,-16.06,-0.04,1.45,-7.06
678218,35.89,846.77,4105.32,150.88,13.88,38.44,0.84,0.61,-15.83,-1.75,1.29,-6.89
678240,35.89,846.77,4105.32,168.25,23.69,32.81,0.57,0.33,-15.64,-3.32,1.32,-6.76
678262,35.89,846.77,4105.32,185.38,31.88,24.19,0.46,0.02,-15.58,-4.8,0.79,-6.52
678284,35.89,846.77,4105.32,202.5,37.56,12.19,0.55,-0.28,-15.67,-5.93,-0.31,-6.21
678306,35.89,846.77,4105.32,228.06,38.94,-10.19,1,-0.6,-15.69,-7.06,-1.02,-6.06
678328,35.89,846.77,4105.32,244.81,34.44,-24.12,1.41,-0.61,-15.44,-6.11,-3.23,-6.12
678350,35.89,846.77,4105.32,261.25,26.56,-34.88,1.77,-0.44,-15.12,-5.54,-4.71,-6.53
678372,35.89,846.77,4105.32,277.5,16.31,-42.31,2.05,-0.13,-15.06,-5.66,-6.33,-6.89
678394,35.89,846.77,4105.32,293.94,4.31,-46.94,2.2,0.35,-15.17,-4.92,-7.87,-7.18
678416,35.89,846.77,4105.32,310.44,-8.81,-49,2.13,1.33,-15.18,-4.02,-9.59,-6.41
678438,35.89,846.77,4105.32,334.94,-29.44,-47.19,1.77,1.93,-15.02,-2.25,-8.2,-7.05
678460,35.89,846.77,4105.32,351.12,-42.81,-41.25,1.2,2.31,-14.91,0.7,-6.51,-7.33
678482,35.89,846.77,4105.32,7.44,-54.69,-28.12,0.48,2.56,-15.08,1.78,-8.96,-7.25
678504,35.89,846.77,4105.32,23.88,-62.12,-2.31,-0.36,2.57,-15.23,1.83,-6.87,-6.25
678526,35.89,846.77,4105.32,40.12,-60.62,30.25,-1.66,2.07,-14.89,2.83,-4.91,-5.86
678548,35.89,846.77,4105.32,63.69,-44.75,59.88,-2.34,1.45,-14.74,3.8,-2.95,-5.3
678570,35.89,846.77,4105.32,79.19,-30.31,69.06,-2.8,0.62,-14.9,4.22,-2.31,-4.29
678592,35.89,846.77,4105.32,95.12,-14.12,74.5,-2.96,-0.39,-15.52,3.59,-0.87,-3.4
678614,35.89,846.77,4105.32,111.19,3,78,-2.81,-1.48,-15.62,2.14,1.79,-2.89
678636,35.89,846.77,4105.32,126.25,19.81,80.69,-2.41,-2.5,-14.85,0.43,2.15,-2.37
678658,35.89,846.77,4105.32,140.5,36.19,83.56,-1.37,-3.7,-14.37,-2.46,2.43,-1.5
678680,35.89,846.77,4105.32,161.31,60.5,91.56,-0.34,-4.23,-14.57,-3.83,2.32,-0.91
678702,35.89,846.77,4105.32,175.38,75.94,111.56,0.9,-4.42,-15.04,-5.6,2,-0.85
678757,35.89,846.77,4105.32,208.44,59,-124.56,3.77,-3.32,-13.99,-6.55,-3.51,-0.5
678779,35.89,846.77,4105.32,220.38,44.5,-121.88,4.88,-1.89,-13.92,-6.39,-5.37,-0.65
678801,35.89,846.77,4105.32,237.56,23.69,-123.06,5.29,-0.67,-14.27,-6.54,-7.17,-0.76
678823,35.89,846.77,4105.32,248.19,10.88,-125.75,5.19,1.32,-14.66,-6.16,-7.97,-0.82
678845,35.89,846.77,4105.32,257.94,-0.19,-130.06,4.64,2.57,-14.45,-4.62,-8.75,-1.05
678867,35.89,846.77,4105.32,266.69,-9.31,-135.69,3.81,3.62,-14.37,-1.81,-9.09,-0.65
678889,35.89,846.77,4105.32,42.81,-16.25,-142.56,2.72,4.38,-14.4,-1.39,-8.68,-0.44
678911,35.89,846.77,4105.32,25.81,-20.69,-149.94,0.75,4.91,-14.19,0.61,-7.82,0.73
678933,35.89,846.77,4105.32,0.62,-23.19,-160.19,-0.6,4.79,-14.06,1.4,-6.68,1.3
678955,35.89,846.77,4105.32,344.25,-23,-165.38,-1.85,4.3,-13.74,2.37,-5.51,2.23
678977,35.89,846.77,4105.32,328.25,-22.25,-168.94,-2.87,3.52,-13.46,2.84,-4.31,3.17
678999,35.89,846.77,4105.32,312.62,-21.75,-171.19,-3.62,2.52,-13.16,3.06,-3.31,3.84
679021,35.89,846.77,4105.32,297.38,-21.88,-172.56,-4.1,0.85,-12.52,3.29,-1.36,4.75
679043,35.89,846.77,4105.32,275.56,-23.69,-174.31,-4.03,-0.21,-12.04,2.65,0.17,5.46
679065,35.89,846.77,4105.32,261.75,-25.81,-176,-3.69,-1.13,-11.59,2.55,0.98,5.74
679087,35.89,846.77,4105.32,248.38,-28.25,-178.69,-3.16,-1.83,-11.19,1.95,2.26,5.98
679109,35.89,846.77,4105.32,235.62,-30.56,177.44,-2.52,-2.31,-10.65,0.86,2.15,6
679131,35.89,846.77,4105.32,223.25,-32.38,172.38,-1.47,-2.69,-10.47,0.19,2.41,5.86
679153,35.89,846.77,4105.32,211,-33.19,166.06,-0.79,-2.76,-10.29,-0.89,1.63,5.91
679175,35.89,846.77,4105.32,192.94,-31.88,155.5,-0.17,-2.68,-10.35,-1.29,2.71,5.89
679197,35.89,846.77,4105.32,180.62,-28.88,148.31,0.37,-2.53,-10.73,-1.7,1.91,5.55
679219,35.89,846.77,4105.32,167.69,-23.88,141.75,0.83,-2.29,-11.21,-2.8,0.51,5.18
679241,35.89,846.77,4105.32,285.19,-17.69,136.44,1.12,-1.99,-10.78,-4.14,0.34,4.66
679263,35.89,846.77,4105.32,293.19,-11.19,132.75,1.27,-1.47,-8.99,-5.41,0.93,4.1
679285,35.89,846.77,4105.32,303.5,-1.75,129.31,1.29,-1.17,-8.32,-5.9,-0.34,3.4
679307,35.89,846.77,4105.32,309.94,4.31,128.06,1.28,-0.97,-7.78,-6.5,-1.92,2.91
679329,35.89,846.77,4105.32,315.69,10.25,127.38,1.23,-0.88,-7.36,-5.56,-1.19,3.9
679351,35.89,846.77,4105.32,321.38,16.12,127.44,1.18,-0.82,-7.28,-6.2,-4.38,2.99
679373,35.89,846.77,4105.32,326.31,21.56,127.94,1.27,-0.79,-5.82,-5.88,-5.92,2.17
679430,35.89,846.77,4105.32,328.44,28.56,127.56,1.53,-0.86,-0.21,-7.67,-8.78,1.44
679452,35.89,846.77,4105.32,322.81,26.06,125.56,1.61,-0.99,2.84,-9.85,-10.33,0.87
679474,35.89,846.77,4105.32,313.5,20.56,122.81,1.58,-1.44,7.63,-12.98,-9.52,1.86
679496,35.89,846.77,4105.32,300.38,11.69,120.12,1.36,-1.94,10.82,-13.65,-7.74,1.09
679518,35.89,846.77,4105.32,273.75,-7.75,118.06,0.82,-2.52,13.45,-13.71,-5.62,0.69
679540,35.89,846.77,4105.32,252.19,-23.94,119.38,-0.07,-2.93,15.57,-6.11,-1.73,-0.21
679562,35.89,846.77,4105.32,228.81,-41.19,124.81,-1.14,-2.91,16.87,-9.83,-0.95,0.2
679584,35.89,846.77,4105.32,203,-58.44,141,-2.25,-2.7,19.03,-9.7,1.76,-0.13
679606,35.89,846.77,4105.32,173.94,-67.69,-170.75,-4.02,-1.73,22.48,-3.11,-0.23,-0.84
679628,35.89,846.77,4105.32,127.56,-43.44,-114.38,-4.62,-0.28,23.27,-0.38,-5.76,-0.1
679650,35.89,846.77,4105.32,96.19,-18,-104.44,-4.53,1.37,24.52,0.28,-3.06,1.77
679672,35.89,846.77,4105.32,63.38,10.94,-99.56,-3.96,2.94,26.91,4.73,-6.2,3.46
679694,35.89,846.77,4105.32,29.62,42.12,-96.19,-2.45,4.19,28.35,0.57,-15.42,4.23
679716,35.89,846.77,4105.32,355.38,74.75,-90,0.91,3.92,30.69,-7.38,-22.02,3.7
679738,35.89,846.77,4105.32,319.75,70.62,78,2.55,2.09,31.99,-9.33,-22.07,3.46
679760,35.89,846.77,4105.32,263.88,17.56,81.19,3.02,-0.69,32.9,-16.59,-21.44,-0.1
679782,35.89,846.77,4105.32,224.44,-18.19,78.56,1.73,-3.39,33.74,-15.99,-13.92,-4.36
679804,35.89,846.77,4105.32,184,-52.44,67.31,-1.08,-4.72,33.56,-12.04,-12.86,-4.97
679826,35.89,846.77,4105.32,143.44,-72.81,-0.06,-4.12,-4.16,33.36,-5.62,-12.91,-4.88
679848,35.89,846.77,4105.32,103.38,-49.88,-54.88,-6.19,-1.9,32.94,-2.27,-15.12,-0.66
679870,35.89,846.77,4105.32,45.81,-4.69,-59.94,-5.93,2.45,32,-3.73,-18.08,0.05
679892,35.89,846.77,4105.32,9,21.88,-51.12,-3.85,4.4,31.71,-7.05,-19.14,3.65
679914,35.89,846.77,4105.32,333.12,41.06,-30.19,-1.06,4.79,31.37,-11.07,-18.11,2.61
679936,35.89,846.77,4105.32,298.06,45.25,2.38,1.35,3.57,31.02,-11.6,-11.59,0.71
679958,35.89,846.77,4105.32,263.5,33.88,27.25,2.59,1.34,30.61,-9.58,-7.96,-2.44
679980,35.89,846.77,4105.32,229.31,15.94,37.88,1.72,-2.07,29.81,-4.04,-6.21,-4.78
680002,35.89,846.77,4105.32,179.12,-11.25,38.62,-1.23,-3.41,28.67,-0.75,-6.85,-5.02
680024,35.89,846.77,4105.32,146.25,-26.38,30.88,-2.27,-3.24,28.26,1.81,-9.94,-5.55
680046,35.89,846.77,4105.32,114.5,-37.31,17.56,-4.33,-1.25,26.97,3.42,-14.49,-3.97
680068,35.89,846.77,4105.32,83.56,-41.69,-1.69,-4.45,0.61,26.18,-0.35,-17.32,-1.74
680090,35.89,846.77,4105.32,53.5,-37.88,-21.38,-2.98,2.74,25.11,-4.93,-16.74,-0.98
680148,35.89,846.77,4105.32,328.12,3.75,-45.19,0.82,2.28,23.99,-11.58,-9.7,-0.43
680170,35.89,846.77,4105.32,301.38,20.88,-42.44,1.57,0.28,22.81,-11.28,-0.85,-0.93
680192,35.89,846.77,4105.32,264,42.75,-25.44,1.1,-1,21.56,-4.64,2.64,-1.53
680214,35.89,846.77,4105.32,241.44,50.31,-2.94,0.18,-1.79,19.93,1.96,4.3,-1.72
680236,35.89,846.77,4105.32,221.38,49,22.06,-0.83,-1.93,17.73,4.87,5.23,-1.93
680258,35.89,846.77,4105.32,203.75,41.19,40.31,-1.65,-1.52,15.78,8.23,3.38,-1.31
680280,35.89,846.77,4105.32,187.94,30.25,51.38,-2.17,-0.81,14.3,9.24,-2.63,-0.19
680302,35.89,846.77,4105.32,173.56,18.12,58,-2.37,0.42,12.95,8.52,-3.79,0.08
680324,35.89,846.77,4105.32,153.69,-0.88,63.25,-2.16,1.17,12.43,8.44,-5.54,0.73
680346,35.89,846.77,4105.32,141.06,-13.94,64.69,-1.63,1.78,12.27,8.13,-6.26,1.12
680368,35.89,846.77,4105.32,128.25,-27.44,64.5,-0.98,2.17,12.66,1.42,3.44,-2.99
680390,35.89,846.77,4105.32,115.06,-41.31,62.44,-0.55,2.29,12.86,-2.54,-14.19,4.17
680412,35.89,846.77,4105.32,102.19,-54.81,56.81,0.37,2.28,12.63,-2.19,-10.68,3.23
680434,35.89,846.77,4105.32,84.88,-71.06,30.62,1.7,1.63,11.44,-2.05,-9.15,2.47
680456,35.89,846.77,4105.32,74.62,-74.62,-10.38,2.21,0.93,10.7,-8.56,-10.73,5
680478,35.89,846.77,4105.32,65.62,-69.56,-44.38,2.56,-0.07,9.72,-6.87,-7.98,3.28
680500,35.89,846.77,4105.32,58.06,-61.12,-59.25,2.62,-1.01,8.72,-6.82,-3.01,3.07
680522,35.89,846.77,4105.32,52.06,-52.62,-65.69,2.48,-1.9,7.39,-6.71,0.64,2.55
680544,35.89,846.77,4105.32,48.12,-45.38,-68.31,2.05,-3.02,4.77,-6.77,1.8,2.06
680566,35.89,846.77,4105.32,46.5,-37.5,-68.94,1.69,-3.6,2.75,-6.52,4.42,2.1
680588,35.89,846.77,4105.32,48.38,-34.62,-67.94,1.34,-4.03,0.78,-3.66,3.6,1.64
680610,35.89,846.77,4105.32,52.19,-33.25,-66.25,1.13,-4.3,-0.83,-3.51,2.71,1.36
680632,35.89,846.77,4105.32,57.5,-33.06,-63.94,1.06,-4.51,-2.2,-1.11,2.02,0.44
680654,35.89,846.77,4105.32,64.06,-33.69,-61.12,1.11,-4.59,-3.32,-2.09,4.12,0.85
680676,35.89,846.77,4105.32,74.69,-34.88,-56.81,1.4,-4.54,-3.6,-1.31,4.86,2.43
680698,35.89,846.77,4105.32,81.62,-35.38,-53.88,1.42,-4.51,-3.64,1.24,2.02,-0.94
680720,35.89,846.77,4105.32,88.44,-35.56,-51,1.54,-4.4,-3.68,2.12,2.43,-0.56
680742,35.89,846.77,4105.32,95.19,-35.62,-48.31,1.65,-4.22,-3.71,2.77,3.82,0.75
680764,35.89,846.77,4105.32,101.81,-35.62,-45.75,1.7,-4,-3.79,3.85,2.99,-1.89
680786,35.89,846.77,4105.32,108.31,-35.62,-43.38,1.8,-3.6,-3.93,4.21,4.28,-1.74
680808,35.89,846.77,4105.32,118,-35.75,-40.12,1.86,-3.32,-4.05,3.9,5.12,-2.11
680830,35.89,846.77,4105.32,124.44,-36,-38.06,1.86,-3.05,-4.2,3.43,5.01,-2.9
680885,35.89,846.77,4105.32,140.62,-37.12,-32.62,1.87,-2.37,-4.59,2.71,5.73,-3.05
680907,35.89,846.77,4105.32,147.19,-37.81,-30.31,1.86,-2.13,-4.75,2.15,5.99,-2.83
680929,35.89,846.77,4105.32,157.19,-39,-26.5,1.86,-1.73,-5,1.53,5.02,-3.26
680951,35.89,846.77,4105.32,164,-39.88,-23.81,1.89,-1.47,-5.16,1.71,3.47,-4.15
680973,35.89,846.77,4105.32,170.88,-40.75,-20.88,1.93,-1.2,-5.29,-0.95,6.23,-2.36
680995,35.89,846.77,4105.32,177.69,-41.62,-17.75,1.87,-1.01,-5.31,-0.45,4.55,-3.7
681017,35.89,846.77,4105.32,184.38,-42.31,-14.62,1.87,-0.79,-5.13,-0.84,4.61,-3.61
681039,35.89,846.77,4105.32,193.94,-43.12,-10.06,1.82,-0.52,-4.81,-2.7,5.81,-3.01
681061,35.89,846.77,4105.32,199.69,-43.38,-7.31,1.74,-0.43,-4.38,-2.18,5.97,-3.31
681083,35.89,846.77,4105.32,204.94,-43.44,-5,1.67,-0.38,-3.86,-2.7,5.74,-3.08
681105,35.89,846.77,4105.32,209.5,-43.25,-3.12,1.62,-0.39,-3.35,-2.28,5.96,-3.6
681127,35.89,846.77,4105.32,213.62,-42.94,-1.69,1.59,-0.41,-2.94,-3.22,5.29,-3.57
681149,35.89,846.77,4105.32,217.19,-42.5,-0.81,1.58,-0.5,-2.27,-2.73,5.26,-3.87
681171,35.89,846.77,4105.32,221.56,-41.69,-0.31,1.58,-0.56,-1.8,-3.41,5.75,-3.58
681193,35.89,846.77,4105.32,223.88,-41,-0.62,1.57,-0.65,-1.35,-3.25,6.21,-3.56
681215,35.89,846.77,4105.32,226.19,-40.19,-1.38,1.55,-0.75,-0.94,-3.69,5.88,-3.7
681237,35.89,846.77,4105.32,227.5,-39.31,-2.5,1.52,-0.88,-0.47,-3.59,6.93,-3.37
681259,35.89,846.77,4105.32,228.12,-38.12,-4.06,1.46,-1.1,0.14,-3.48,6.65,-3.44
681281,35.89,846.77,4105.32,228.38,-36.75,-5.81,1.39,-1.28,0.52,-2.5,5.79,-4.16
681303,35.89,846.77,4105.32,228.19,-34.44,-8.62,1.34,-1.4,0.72,-2.54,5.65,-3.99
681325,35.89,846.77,4105.32,227.88,-32.62,-10.5,1.29,-1.51,0.91,-2.25,5.13,-4.26
681347,35.89,846.77,4105.32,227.25,-30.69,-12.38,1.24,-1.63,1.09,-2.12,4.91,-4.29
681369,35.89,846.77,4105.32,226.5,-28.56,-14.19,1.2,-1.73,1.21,-2.08,4.75,-4.35
681391,35.89,846.77,4105.32,225.62,-26.25,-15.94,1.09,-1.84,1.29,-2.01,4.47,-4.54
681413,35.89,846.77,4105.32,224.31,-22.69,-18.12,0.98,-1.88,1.28,-1.97,4.58,-4.35
681435,35.89,846.77,4105.32,223.44,-20.25,-19.38,0.84,-1.89,1.22,-1.38,4.96,-4.07
681457,35.89,846.77,4105.32,222.69,-17.81,-20.38,0.7,-1.88,1.09,-0.76,4.48,-4.22
681479,35.89,846.77,4105.32,222.12,-15.56,-21.12,0.58,-1.83,0.92,-0.87,4.61,-4.06
681501,35.89,846.77,4105.32,221.69,-13.38,-21.69,0.39,-1.73,0.65,-0.34,5.39,-3.57
681558,35.89,846.77,4105.32,221.5,-7.88,-22.19,0.01,-1.54,0.11,-0.87,5.77,-3.07
681580,35.89,846.77,4105.32,221.88,-6.38,-22,-0.14,-1.5,-0.1,-1,5.65,-3.29
681602,35.89,846.77,4105.32,222.44,-4.94,-21.62,-0.35,-1.44,-0.37,0.09,6.4,-2.84
681624,35.89,846.77,4105.32,223.19,-3.69,-21.12,-0.5,-1.36,-0.54,-0.24,5.3,-3.49
681646,35.89,846.77,4105.32,224.56,-1.94,-20.12,-0.63,-1.29,-0.71,0.32,6.2,-3.01
681668,35.89,846.77,4105.32,225.75,-1,-19.31,-0.74,-1.22,-0.88,0,5.19,-3.57
681690,35.89,846.77,4105.32,227.06,-0.12,-18.38,-0.81,-1.15,-1.03,0.51,4.95,-3.64
681712,35.89,846.77,4105.32,228.5,0.56,-17.44,-0.88,-1.07,-1.18,0.54,5.39,-3.19
681734,35.89,846.77,4105.32,230.06,1.25,-16.44,-1,-0.93,-1.33,0.8,4.79,-3.34
681756,35.89,846.77,4105.32,232.62,2,-14.81,-1.06,-0.83,-1.46,0.85,4.3,-3.22
681778,35.89,846.77,4105.32,234.5,2.44,-13.62,-1.1,-0.73,-1.57,1.04,3.95,-3.12
681800,35.89,846.77,4105.32,236.44,2.69,-12.5,-1.12,-0.63,-1.68,0.66,3.01,-3.32
681822,35.89,846.77,4105.32,238.75,2.88,-11.38,-1.11,-0.53,-1.78,0.63,3.1,-3.2
681844,35.89,846.77,4105.32,240.88,3,-10.25,-1.08,-0.39,-1.94,0.37,2.52,-3.13
681866,35.89,846.77,4105.32,243.12,3.06,-9.19,-1.04,-0.31,-2.03,0,2.08,-3.01
681888,35.89,846.77,4105.32,246.62,3,-7.69,-0.99,-0.23,-2.1,-0.25,1.87,-3.17
681910,35.89,846.77,4105.32,249.06,2.88,-6.75,-0.92,-0.15,-2.18,-0.71,1.47,-2.78
681932,35.89,846.77,4105.32,251.56,2.69,-5.94,-0.84,-0.07,-2.25,-0.66,1.27,-2.89
681954,35.89,846.77,4105.32,254.19,2.44,-5.19,-0.76,0.01,-2.33,-0.84,1.1,-3.02
681976,35.89,846.77,4105.32,256.81,2.12,-4.5,-0.64,0.14,-2.46,-1.05,1.03,-2.84
681998,35.89,846.77,4105.32,261,1.56,-3.62,-0.56,0.24,-2.52,-1.22,0.74,-3.39
682020,35.89,846.77,4105.32,263.81,1,-3.19,-0.46,0.34,-2.54,-1.35,0.66,-3.63
682042,35.89,846.77,4105.32,266.56,0.44,-2.75,-0.37,0.44,-2.53,-1.63,0.45,-3.78
682064,35.89,846.77,4105.32,269.38,-0.19,-2.44,-0.28,0.53,-2.55,-1.66,0.45,-4.08
682086,35.89,846.77,4105.32,272.25,-1,-2.19,-0.2,0.63,-2.54,-1.79,0.28,-4.63
682108,35.89,846.77,4105.32,275.06,-1.88,-1.94,-0.1,0.78,-2.48,-1.74,0.33,-4.91
682130,35.89,846.77,4105.32,279.19,-3.38,-1.62,-0.05,0.89,-2.38,-1.73,0.41,-4.94
682152,35.89,846.77,4105.32,281.69,-4.5,-1.44,-0.02,1,-2.23,-1.69,0.16,-5.06
682174,35.89,846.77,4105.32,284.12,-5.81,-1.19,0,1.13,-2.07,-1.85,0.07,-5.18
682196,35.89,846.77,4105.32,286.25,-7.19,-1,0,1.25,-1.88,-1.83,0.12,-5.54
682218,35.89,846.77,4105.32,288.19,-8.69,-0.69,0.01,1.38,-1.7,-1.74,0.1,-5.66
682240,35.89,846.77,4105.32,290.69,-11.25,-0.25,-0.01,1.57,-1.4,-1.76,0.16,-5.83
682262,35.89,846.77,4105.32,292.06,-13.12,0,-0.03,1.7,-1.18,-1.82,-0.01,-5.75
682284,35.89,846.77,4105.32,293.19,-15.12,0.31,-0.05,1.83,-0.93,-2.13,0.04,-5.64
682344,35.89,846.77,4105.32,295.12,-21.69,1.19,-0.08,2.09,-0.29,-3.32,-0.17,-4.87
682366,35.89,846.77,4105.32,295.31,-24.06,1.38,-0.07,2.12,-0.12,-3.67,0.11,-4.52
682388,35.89,846.77,4105.32,295.31,-26.44,1.44,-0.05,2.13,0.05,-4.86,-0.67,-3.6
682410,35.89,846.77,4105.32,295.06,-28.75,1.38,0.04,2.06,0.4,-5.4,-0.44,-3.56
682432,35.89,846.77,4105.32,294.25,-32.12,0.75,0.13,1.99,0.64,-5.2,-0.97,-3.74
682454,35.89,846.77,4105.32,293.5,-34.31,0,0.24,1.93,0.83,-6.54,-0.62,-3.39
682476,35.89,846.77,4105.32,292.38,-36.31,-1.25,0.38,1.74,1.29,-7.07,0.66,-3.35
682498,35.89,846.77,4105.32,290.81,-38,-3.06,0.46,1.56,1.57,-8.95,1.3,-2.5
682520,35.89,846.77,4105.32,289,-39.38,-5.25,0.52,1.29,1.79,-8.86,2.97,-2.39
682542,35.89,846.77,4105.32,285.81,-40.62,-9.06,0.51,0.84,2.04,-8.89,3.97,-2.19
682564,35.89,846.77,4105.32,283.69,-40.88,-11.62,0.42,0.52,2.06,-7.7,5,-2.35
682586,35.89,846.77,4105.32,281.44,-40.75,-13.94,0.31,0.27,1.97,-6.57,5.34,-2.11
682608,35.89,846.77,4105.32,279.56,-40.31,-15.81,0.2,0.04,1.7,-6.31,5.79,-1.5
682630,35.89,846.77,4105.32,277.75,-39.69,-17.25,0.06,-0.17,1.46,-5.42,5.44,-1.53
682652,35.89,846.77,4105.32,276.38,-39,-18.25,-0.07,-0.4,1.11,-5.72,5.77,-0.11
682674,35.89,846.77,4105.32,274.69,-37.69,-19.06,-0.18,-0.57,0.8,-2.89,3.66,-1.78
682696,35.89,846.77,4105.32,274.19,-36.81,-19.06,-0.23,-0.65,0.42,-3.38,3.77,-1.24
682718,35.89,846.77,4105.32,274.06,-36.06,-18.62,-0.29,-0.74,0.05,-2.44,2.7,-2.01
682740,35.89,846.77,4105.32,274.19,-35.25,-18,-0.29,-0.79,-0.25,-2.71,2.14,-2.17
682762,35.89,846.77,4105.32,274.69,-34.56,-17.19,-0.25,-0.86,-0.51,-2.02,2.09,-2.46
682784,35.89,846.77,4105.32,275.38,-33.81,-16.38,-0.21,-0.89,-0.64,-2.03,1.07,-3.06
682806,35.89,846.77,4105.32,276.62,-32.69,-15.06,-0.15,-0.92,-0.75,-1.94,1.36,-3.23
682828,35.89,846.77,4105.32,277.62,-31.88,-14.25,-0.09,-0.94,-0.81,-2.15,1.38,-3.22
682850,35.89,846.77,4105.32,278.62,-31.06,-13.44,-0.03,-0.96,-0.85,-1.9,1.47,-3.62
682872,35.89,846.77,4105.32,279.69,-30.25,-12.81,0.03,-0.97,-0.85,-2.7,1.12,-3.66
682894,35.89,846.77,4105.32,280.75,-29.38,-12.25,0.11,-0.99,-0.74,-1.98,1.11,-3.65
682949,35.89,846.77,4105.32,283.12,-32.06,-14.88,0.21,-1.05,-0.46,-2.04,1.27,-3.25
682971,35.89,846.77,4105.32,283.69,-33.44,-16.56,0.26,-1.09,-0.36,-2.11,1.42,-2.7
682993,35.89,846.77,4105.32,284.88,-32.38,-16.5,0.28,-1.12,-0.27,-1.76,2.02,-3.01
683015,35.89,846.77,4105.32,285.38,-31.19,-16.44,0.28,-1.14,-0.18,-1.5,2.39,-2.94
683037,35.89,846.77,4105.32,286.81,-29.44,-16.44,0.25,-1.15,-0.13,-1.7,2.24,-2.95
683059,35.89,846.77,4105.32,287.19,-28.25,-16.44,0.22,-1.15,-0.1,-1.65,2.56,-2.89
683081,35.89,846.77,4105.32,288.06,-27.06,-16.38,0.18,-1.14,-0.06,-1.46,2.55,-2.32
683103,35.89,846.77,4105.32,288.38,-25.88,-16.38,0.14,-1.13,-0.07,-1.34,2.62,-2.09
683125,35.89,846.77,4105.32,288.62,-24.69,-16.25,0.1,-1.11,-0.06,-1.05,2.49,-1.89
683147,35.89,846.77,4105.32,289.25,-23.56,-16.19,0.04,-1.06,0.12,-0.96,2.38,-1.72
683169,35.89,846.77,4105.32,289.19,-21.81,-16.19,0,-1.02,0.25,-0.76,2.51,-1.39
683191,35.89,846.77,4105.32,289.81,-20.69,-16.12,-0.05,-0.96,0.33,-0.73,2.04,-1.27
683213,35.89,846.77,4105.32,289.44,-19.56,-16.12,-0.09,-0.9,0.49,-0.3,1.83,-1.13
683235,35.89,846.77,4105.32,289.31,-18.44,-16.12,-0.12,-0.82,0.67,-0.27,1.8,-1.16
683257,35.89,846.77,4105.32,288.56,-17.44,-16.12,-0.15,-0.68,0.87,0.01,1.83,-1.13
683279,35.89,846.77,4105.32,287.62,-16,-16.25,-0.17,-0.59,0.98,0.14,1.61,-1.28
683301,35.89,846.77,4105.32,286.5,-15.12,-16.31,-0.2,-0.48,1.09,0.11,1.69,-1.23
683323,35.89,846.77,4105.32,285.25,-14.31,-16.38,-0.22,-0.37,1.18,0.21,1.7,-1.13
683345,35.89,846.77,4105.32,284.19,-13.62,-16.38,-0.25,-0.26,1.23,0.25,1.7,-1.19
683367,35.89,846.77,4105.32,282.81,-13.06,-16.38,-0.27,-0.14,1.26,-0.01,1.94,-0.5
683389,35.89,846.77,4105.32,281.88,-12.62,-16.38,-0.32,0.03,1.32,0.06,1.91,-0.95
683411,35.89,846.77,4105.32,279.5,-12.12,-16.31,-0.35,0.14,1.37,0.05,2.82,-0.55
683433,35.89,846.77,4105.32,278.38,-11.94,-16.19,-0.41,0.26,1.38,0.22,2.82,-0.83
683455,35.89,846.77,4105.32,276.75,-11.88,-16,-0.48,0.39,1.38,0.29,3.45,-0.4
683477,35.89,846.77,4105.32,275.12,-12,-15.75,-0.56,0.52,1.35,0.48,2.97,-1.29
683499,35.89,846.77,4105.32,273.94,-12.25,-15.44,-0.67,0.75,1.31,0.33,3.01,-1.06
683521,35.89,846.77,4105.32,271.5,-13,-14.81,-0.72,0.9,1.27,0.48,2.66,-1.07
683543,35.89,846.77,4105.32,270.06,-13.75,-14.38,-0.76,1.05,1.22,0.23,2.66,-0.84
683565,35.89,846.77,4105.32,268.5,-14.69,-13.88,-0.79,1.2,1.19,0.39,2.07,-1.51
683587,35.89,846.77,4105.32,267.31,-15.81,-13.44,-0.79,1.35,1.18,0.34,1.79,-1.85
683609,35.89,846.77,4105.32,265.69,-17.06,-13.06,-0.77,1.49,1.18,0.16,1.51,-2.08
683631,35.89,846.77,4105.32,264,-18.5,-12.81,-0.71,1.69,1.24,0.05,1.48,-2.21
683653,35.89,846.77,4105.32,261.88,-20.81,-12.69,-0.64,1.8,1.32,-0.28,1.36,-2.68
683675,35.89,846.77,4105.32,259.88,-22.56,-12.94,-0.5,1.96,1.56,-0.19,1.26,-3.08
683697,35.89,846.77,4105.32,257.69,-24.31,-13.5,-0.39,2.06,1.75,-0.18,1.43,-3.09
683719,35.89,846.77,4105.32,255.25,-26.12,-14.38,-0.25,2.15,1.92,-0.12,1.3,-3.47
683741,35.89,846.77,4105.32,252.69,-27.88,-15.62,-0.09,2.22,2.06,-0.11,1.21,-3.61
683798,35.89,846.77,4105.32,243.81,-32.56,-22.44,0.54,2.33,2.65,-0.63,1.14,-3.55
683820,35.89,846.77,4105.32,240.5,-33.69,-25.75,0.79,2.32,2.82,-1.04,1.43,-3.36
683842,35.89,846.77,4105.32,237.06,-34.44,-29.56,1.04,2.27,2.91,-0.74,1.53,-3.12
683864,35.89,846.77,4105.32,232,-34.88,-35.88,1.4,2.14,2.89,-1.14,1.69,-3.02
683886,35.89,846.77,4105.32,228.75,-34.75,-40.31,1.61,2.03,2.76,-1.29,2.22,-2.84
683908,35.89,846.77,4105.32,225.88,-34.38,-44.62,1.75,1.9,2.49,-1.15,2.14,-2.91
683930,35.89,846.77,4105.32,223.38,-34,-48.81,1.84,1.8,2.1,-2.23,3.36,-2.41
683952,35.89,846.77,4105.32,221.25,-33.62,-52.69,1.81,1.7,1.72,-2.67,2.64,-2.44
683974,35.89,846.77,4105.32,219.5,-33.38,-56.25,1.69,1.57,1.22,-1.73,4.38,-2.21
683996,35.89,846.77,4105.32,217.62,-33.19,-61,1.54,1.5,0.9,-1.46,4.12,-2.17
684018,35.89,846.77,4105.32,216.62,-33.25,-63.69,1.36,1.44,0.61,-2.42,4.85,-1.62
684040,35.89,846.77,4105.32,215.88,-33.56,-66.06,1.14,1.35,0.31,-1.98,3.96,-1.59
684062,35.89,846.77,4105.32,215.38,-34,-68.06,0.93,1.27,0.04,-1.72,4.32,-1.52
684084,35.89,846.77,4105.32,215.12,-34.62,-69.69,0.67,1.18,-0.23,-2.48,5.05,-1.3
684106,35.89,846.77,4105.32,215.19,-36.06,-71.31,0.26,1.02,-0.68,-1.44,4.54,-1.3
684128,35.89,846.77,4105.32,215.56,-37.31,-71.88,-0.01,0.89,-0.95,-2.17,4.69,-0.84
684150,35.89,846.77,4105.32,216.38,-38.75,-72,-0.29,0.74,-1.21,-1.79,4.45,-0.82
684172,35.89,846.77,4105.32,217.25,-40.44,-71.56,-0.55,0.58,-1.45,-1.57,4.35,-0.85
684194,35.89,846.77,4105.32,218.31,-42.38,-70.62,-0.8,0.4,-1.74,-1.69,3.9,-0.93
684216,35.89,846.77,4105.32,219.75,-44.5,-69.12,-1.14,0.1,-2.25,-2.38,3.72,-1.1
684238,35.89,846.77,4105.32,222.81,-48.25,-65.31,-1.34,-0.15,-2.64,-2.02,3.21,-1.34
684260,35.89,846.77,4105.32,225.25,-51,-61.62,-1.49,-0.41,-3.01,-1.99,3.47,-1.39
684282,35.89,846.77,4105.32,228.12,-53.75,-56.69,-1.62,-0.7,-3.36,-1.74,3.15,-1.56
684304,35.89,846.77,4105.32,231.31,-56.31,-50.19,-1.69,-1.02,-3.67,-1.62,2.14,-2.05
684362,35.89,846.77,4105.32,243.19,-60.38,-20.56,-1.6,-1.96,-4.77,-1.36,1.2,-2.79
684384,35.89,846.77,4105.32,248,-59.38,-8.5,-1.45,-2.28,-5.14,-0.88,1.4,-3.35
684406,35.89,846.77,4105.32,253.25,-56.88,2.81,-1.17,-2.71,-5.61,-0.87,0.99,-3.96
684428,35.89,846.77,4105.32,258.69,-53,12.31,-0.96,-2.95,-5.65,-1.24,-0.05,-4.2
684450,35.89,846.77,4105.32,266.5,-45.44,22.19,-0.74,-3.13,-5.32,-0.94,-0.14,-4.71
684472,35.89,846.77,4105.32,271.12,-39.94,26.12,-0.52,-3.22,-4.87,-0.65,0.26,-4.98
684494,35.89,846.77,4105.32,275.19,-34.44,28.62,-0.34,-3.26,-4.37,0,0.26,-5.22
684516,35.89,846.77,4105.32,278.75,-29.06,30.19,-0.17,-3.28,-3.97,-0.52,0.73,-5.7
684538,35.89,846.77,4105.32,281.94,-23.81,31.12,-0.02,-3.27,-3.61,-0.4,0.45,-5.92
684560,35.89,846.77,4105.32,286,-16.31,31.62,0.18,-3.24,-3.21,-0.64,1.01,-6.32
684582,35.89,846.77,4105.32,288.44,-11.5,31.56,0.31,-3.21,-3.03,-0.87,0.52,-6.08
684604,35.89,846.77,4105.32,290.81,-6.75,31.25,0.46,-3.19,-2.95,-0.62,0.73,-6.26
684626,35.89,846.77,4105.32,293.06,-2.06,30.69,0.59,-3.15,-2.9,-0.27,0.56,-6.27
684648,35.89,846.77,4105.32,295.38,2.5,29.94,0.73,-3.1,-2.89,-0.19,0.31,-6.03
684670,35.89,846.77,4105.32,297.56,7,28.94,0.92,-3.02,-2.82,0.03,0.12,-5.84
684692,35.89,846.77,4105.32,300.88,13.62,26.94,1.04,-3,-2.86,0.92,0.11,-5.48
684714,35.89,846.77,4105.32,303.25,18,25.25,1.17,-2.96,-2.98,0.95,0.11,-5.5
684736,35.89,846.77,4105.32,305.69,22.38,23.19,1.3,-2.92,-3.11,1.18,0.15,-5.24
684758,35.89,846.77,4105.32,308.25,26.62,20.75,1.42,-2.87,-3.12,1.48,0.35,-4.9
684780,35.89,846.77,4105.32,310.56,30.69,17.94,1.53,-2.77,-2.68,0.74,0.48,-4.98
684802,35.89,846.77,4105.32,313.31,36.19,13.62,1.53,-2.68,-2.19,1.13,0.51,-4.53
684824,35.89,846.77,4105.32,314.44,39.38,10.94,1.46,-2.54,-1.65,1.65,0.9,-4.2
684846,35.89,846.77,4105.32,314.94,42.25,8.81,1.34,-2.39,-0.94,1.87,1.05,-3.81
684868,35.89,846.77,4105.32,314.62,44.81,7.44,1.17,-2.24,-0.15,1.79,0.72,-3.56
684890,35.89,846.77,4105.32,313.5,47.12,7.12,0.96,-2.08,0.65,2.05,0.87,-3.27
684912,35.89,846.77,4105.32,311.38,49,8.44,0.48,-1.77,2.27,2.22,0.66,-2.59
684934,35.89,846.77,4105.32,306.5,50.94,13.69,0.21,-1.62,3.06,2.77,0.79,-2.1
684956,35.89,846.77,4105.32,302.31,51.38,19.06,-0.07,-1.42,3.81,2.96,0.05,-1.62
684978,35.89,846.77,4105.32,297.44,50.81,25.56,-0.35,-1.17,4.51,3.89,-0.11,-1.19
685000,35.89,846.77,4105.32,292,49.06,32.56,-0.61,-0.91,5.13,3.31,-1.03,-1.07
685022,35.89,846.77,4105.32,286.06,46.06,39.38,-0.93,-0.47,5.85,3.26,-1.41,-0.97
685044,35.89,846.77,4105.32,279.81,41.94,45.38,-1.05,-0.16,6.03,2.71,-1.38,-0.96
685066,35.89,846.77,4105.32,270.5,34.38,52.44,-1.08,0.12,6.05,4.55,-1.5,-0.36
685088,35.89,846.77,4105.32,264.44,28.81,55.75,-1,0.42,5.95,2.53,-2.69,-0.38
685110,35.89,846.77,4105.32,258.56,23,58.19,-0.81,0.63,5.82,1.85,-3.13,-0.41
685132,35.89,846.77,4105.32,252.81,17.12,59.81,-0.56,0.8,5.71,2.68,-4.48,0.05
685154,35.89,846.77,4105.32,247.25,11.19,60.69,-0.12,0.98,5.65,1.24,0.2,-0.73
685176,35.89,846.77,4105.32,238.62,2,61,0.26,1.06,5.86,1.94,-8.33,1.49
685198,35.89,846.77,4105.32,232.81,-4.25,60.25,0.76,1.09,5.95,-0.22,-3.93,-1.26
685255,35.89,846.77,4105.32,216,-22.31,53.75,1.82,0.87,5.5,-0.44,-4.31,-1.32
685277,35.89,846.77,4105.32,211.25,-27.38,50.12,2.12,0.73,5.11,-1.12,-3.34,-1.11
685299,35.89,846.77,4105.32,207,-31.81,45.81,2.38,0.55,4.7,-0.63,-2.94,-1.48
685321,35.89,846.77,4105.32,203.25,-35.44,40.88,2.59,0.34,4.26,-1.39,-2.73,-1.3
685343,35.89,846.77,4105.32,200,-38.31,35.31,2.75,0.09,3.9,-0.99,-2.2,-1.66
685365,35.89,846.77,4105.32,197.12,-40.38,29.25,2.88,-0.32,3.62,-1.95,-1.85,-0.81
685387,35.89,846.77,4105.32,192.88,-42.12,19.38,2.9,-0.63,3.56,-1.19,-0.49,-1.94
685409,35.89,846.77,4105.32,190.12,-42.31,12.56,2.86,-0.92,3.49,-1.78,0.14,-0.91
685431,35.89,846.77,4105.32,187.44,-41.69,5.88,2.79,-1.21,3.39,-0.68,1.77,-1.94
685453,35.89,846.77,4105.32,184.88,-40.31,-0.31,2.68,-1.44,3.28,-0.74,2.62,-1.74
685475,35.89,846.77,4105.32,182.31,-38.31,-6.06,2.48,-1.71,3.31,0.63,3.41,-2.48
685497,35.89,846.77,4105.32,179.69,-35.88,-11.31,2.34,-1.84,3.44,1.1,3.51,-2.52
685519,35.89,846.77,4105.32,175.38,-31.31,-18.31,2.2,-1.96,3.53,1.67,3.34,-3.16
685541,35.89,846.77,4105.32,172.44,-27.81,-22.25,2.05,-2.05,3.57,1.94,3.55,-2.86
685563,35.89,846.77,4105.32,169.5,-24.06,-25.69,1.88,-2.12,3.51,2.24,4.35,-2.44
685585,35.89,846.77,4105.32,166.69,-20.25,-28.5,1.67,-2.16,3.34,2.9,4.97,-2.18
685607,35.89,846.77,4105.32,164.06,-16.44,-30.81,1.25,-2.1,3.14,2.7,5.31,-1.42
685629,35.89,846.77,4105.32,160.12,-10.81,-33.25,0.93,-2.02,3.01,3.78,4.85,-1.51
685651,35.89,846.77,4105.32,157.62,-7.19,-34.25,0.61,-1.91,2.9,3.58,5.04,-1.34
685673,35.89,846.77,4105.32,155.12,-3.69,-34.81,0.3,-1.8,2.87,4.06,4.43,-1.46
685695,35.89,846.77,4105.32,152.5,-0.31,-34.94,0.01,-1.68,2.92,4.45,3.86,-1.59
685754,35.89,846.77,4105.32,143.88,9.31,-33,-0.72,-1.23,3.06,7.76,2.92,-1.78
685776,35.89,846.77,4105.32,141.06,12.06,-31.62,-0.91,-0.99,2.85,8.91,1.86,-2.15
685798,35.89,846.77,4105.32,138.56,14.25,-30.06,-1.05,-0.72,2.47,9.02,1.7,-2.17
685820,35.89,846.77,4105.32,135.88,16.44,-27.5,-1.16,-0.28,1.56,9.15,1.07,-2.48
685842,35.89,846.77,4105.32,135,16.94,-25.94,-1.17,0.03,0.82,8.85,1.12,-2.81
685864,35.89,846.77,4105.32,134.81,16.81,-24.5,-1.15,0.35,0.07,8.66,0.59,-3.01
685886,35.89,846.77,4105.32,135.44,16,-23.38,-1.11,0.67,-0.73,8.96,0.47,-3.01
685908,35.89,846.77,4105.32,136.88,14.44,-22.44,-1.05,1,-1.58,8.08,0.88,-3.27
685930,35.89,846.77,4105.32,139.19,12.25,-21.75,-1.04,1.45,-2.8,7.75,0.82,-3.58
685952,35.89,846.77,4105.32,144.12,7.94,-20.62,-1.1,1.71,-3.49,7.55,1.1,-3.76
685974,35.89,846.77,4105.32,148.12,4.44,-19.69,-1.23,1.94,-4,6.92,1.47,-3.91
685996,35.89,846.77,4105.32,152.56,0.75,-18.31,-1.43,2.13,-4.36,6.5,1.92,-4.08
686018,35.89,846.77,4105.32,157.12,-3.06,-16.44,-1.69,2.27,-4.53,5.24,2.27,-4.62
686040,35.89,846.77,4105.32,161.75,-6.94,-13.94,-2.14,2.37,-4.59,4.11,2.14,-4.77
686062,35.89,846.77,4105.32,168.62,-12.31,-9,-2.45,2.39,-4.54,3.9,2.26,-4.51
686084,35.89,846.77,4105.32,173.06,-15.56,-4.88,-2.75,2.37,-4.45,2.99,2.11,-4.45
686106,35.89,846.77,4105.32,177.38,-18.31,-0.06,-3.18,2.26,-4.33,2.39,1.7,-5.04
686128,35.89,846.77,4105.32,181.5,-20.56,5.25,-3.45,2.14,-4.24,2.24,1.8,-4.36
686150,35.89,846.77,4105.32,185.56,-22.12,11.25,-3.73,1.99,-4.15,1.49,1.24,-4.15
686172,35.89,846.77,4105.32,189.44,-23,17.69,-4.15,1.72,-4.06,0.78,0.54,-3.87
686194,35.89,846.77,4105.32,195.19,-22.81,27.88,-4.4,1.49,-4.04,0.51,0.18,-3.46
686216,35.89,846.77,4105.32,198.94,-21.75,34.75,-4.59,1.23,-3.96,-0.38,-0.63,-2.88
686238,35.89,846.77,4105.32,202.44,-20.06,41.5,-4.71,0.95,-3.74,-1.27,-1.7,-2.33
686262,35.89,846.77,4105.32,205.75,-17.81,47.94,-4.74,0.67,-3.61,-2.36,-2.24,-1.6
686284,35.89,846.77,4105.32,210.5,-13.62,56.94,-4.69,0.27,-3.4,-2.36,-5.35,0.84
686306,35.89,846.77,4105.32,213.56,-10.44,62.31,-4.42,-0.02,-3.38,-1.39,-6.14,0.79
686328,35.89,846.77,4105.32,216.75,-6.81,67.19,-4.11,-0.32,-3.57,-1.14,-5.68,0.46
686350,35.89,846.77,4105.32,220.31,-2.62,71.56,-3.75,-0.64,-3.96,-0.06,-7.61,2.2
686372,35.89,846.77,4105.32,224.38,2.12,75.31,-3.26,-0.94,-4.38,1.32,-7.01,2.54
686394,35.89,846.77,4105.32,228.62,7.31,78.5,-2.46,-1.31,-4.53,0.18,-6.64,2.67
686416,35.89,846.77,4105.32,234.62,14.94,82.38,-1.91,-1.46,-4.26,1.56,-7.33,3.4
686438,35.89,846.77,4105.32,237.88,19.38,84.38,-1.37,-1.49,-3.7,1.97,-6.33,2.98
686460,35.89,846.77,4105.32,240.44,23.06,86,-0.86,-1.42,-3.05,2.84,-7.46,3.43
686482,35.89,846.77,4105.32,242.25,26,87.06,-0.35,-1.27,-2.43,2.8,-5.11,2.77
686504,35.89,846.77,4105.32,243.5,28.31,87.69,0.08,-1.06,-1.94,3.74,-6.07,3.12
686526,35.89,846.77,4105.32,244.31,30.69,87.56,0.71,-0.67,-1.15,2.42,-3.24,2.3
686548,35.89,846.77,4105.32,244.25,31.62,86.81,1.01,-0.44,-0.71,2.14,-3.17,2.2
686570,35.89,846.77,4105.32,243.75,32.06,85.69,1.27,-0.25,-0.25,1.92,-1.51,1.65
686592,35.89,846.77,4105.32,242.75,32.06,84.19,1.46,-0.11,0.15,1.2,-0.58,1.12
686614,35.89,846.77,4105.32,241.44,31.56,82.5,1.63,-0.01,0.5,0.31,-0.11,0.58
686636,35.89,846.77,4105.32,239.69,30.69,80.62,1.8,0.05,1.13,-0.35,0.59,0.07
686692,35.89,846.77,4105.32,232,25.5,74.88,1.96,0,2.02,-0.74,1.83,-1.1
686714,35.89,846.77,4105.32,228.69,23.06,73.06,1.97,-0.07,2.4,-0.98,2.01,-1.4
686736,35.89,846.77,4105.32,224.94,20.25,71.31,1.92,-0.23,3.05,-1.74,2.46,-2.13
686758,35.89,846.77,4105.32,218.38,15.25,68.88,1.85,-0.38,3.58,-1.63,2.65,-2.5
686780,35.89,846.77,4105.32,213.19,11.31,67.44,1.75,-0.55,4.21,-1.53,2.33,-2.82
686802,35.89,846.77,4105.32,207.31,6.88,66,1.65,-0.71,4.81,-1.38,1.94,-2.85
686824,35.89,846.77,4105.32,200.75,1.94,64.56,1.55,-0.88,5.45,-0.84,1.7,-2.91
686846,35.89,846.77,4105.32,193.56,-3.38,62.88,1.43,-1.03,5.98,0.37,1.21,-3.13
686868,35.89,846.77,4105.32,186.06,-8.81,60.94,1.22,-1.24,6.18,0.15,1.35,-3.49
686890,35.89,846.77,4105.32,175.12,-16.31,57.44,1.08,-1.35,5.83,0.09,0.44,-3.36
686912,35.89,846.77,4105.32,168.5,-20.5,54.81,0.96,-1.41,5.32,0.7,1.53,-4.05
686934,35.89,846.77,4105.32,162.44,-23.94,52,0.8,-1.44,4.86,1.18,1.41,-4.14
686956,35.89,846.77,4105.32,156.94,-26.81,49.12,0.64,-1.43,4.42,0.89,0.7,-3.61
686978,35.89,846.77,4105.32,151.94,-29.12,46.25,0.47,-1.38,3.85,0.99,0.4,-3.32
687000,35.89,846.77,4105.32,145.12,-31.81,42,0.39,-1.34,3.57,1.03,0.23,-3.16
687022,35.89,846.77,4105.32,141,-33.19,39.25,0.31,-1.29,3.3,1.39,0.33,-3.62
687044,35.89,846.77,4105.32,137.25,-34.19,36.56,0.24,-1.24,3.07,1.8,-0.38,-3.39
687066,35.89,846.77,4105.32,133.69,-34.94,34,0.17,-1.19,2.86,1.51,0.72,-3.74
687088,35.89,846.77,4105.32,130.38,-35.5,31.62,0.08,-1.14,2.69,1.87,0.23,-4.02
687110,35.89,846.77,4105.32,127.19,-35.94,29.38,-0.01,-1.07,2.58,1.79,-0.34,-3.69
687169,35.89,846.77,4105.32,119,-36.69,23.5,-0.24,-0.86,2.3,2.23,-0.48,-3.99
687191,35.89,846.77,4105.32,116.25,-36.81,21.81,-0.33,-0.73,2.18,2.21,-1.06,-4.34
687213,35.89,846.77,4105.32,112.56,-37.06,19.62,-0.37,-0.62,2.1,2.9,-0.99,-4.94
687235,35.89,846.77,4105.32,110.06,-37.19,18.31,-0.42,-0.5,1.98,2.89,-0.89,-4.86
687257,35.89,846.77,4105.32,107.75,-37.38,17.25,-0.47,-0.37,1.81,2.79,-0.52,-5.12
687279,35.89,846.77,4105.32,106.06,-37.62,16.38,-0.53,-0.24,1.62,2.98,-1.03,-4.95
687301,35.89,846.77,4105.32,104.19,-37.94,15.81,-0.61,-0.03,1.28,2.84,-1.15,-4.93
687323,35.89,846.77,4105.32,102.81,-38.31,15.5,-0.64,0.11,1.07,2.54,-1.11,-4.85
687345,35.89,846.77,4105.32,101.06,-39.06,15.56,-0.67,0.31,0.71,2.82,-1.22,-4.8
687367,35.89,846.77,4105.32,100.25,-39.69,16,-0.69,0.44,0.44,2.7,-1.83,-4.47
687389,35.89,846.77,4105.32,99.81,-40.31,16.69,-0.71,0.57,0.16,2.62,-0.98,-4.69
687411,35.89,846.77,4105.32,99.62,-41,17.75,-0.75,0.7,-0.08,2.22,-1.21,-3.98
687433,35.89,846.77,4105.32,99.75,-41.75,19.06,-0.8,0.86,-0.44,2.22,-1.28,-4.16
687455,35.89,846.77,4105.32,100.44,-42.81,21.75,-0.84,0.96,-0.74,1.96,-2.12,-3.48
687477,35.89,846.77,4105.32,101.25,-43.44,24.06,-0.88,1.04,-1.03,2.13,-1.83,-3.52
687499,35.89,846.77,4105.32,102.44,-44,26.75,-0.94,1.12,-1.29,1.6,-2.37,-3
687521,35.89,846.77,4105.32,104,-44.31,29.81,-0.98,1.17,-1.52,1.26,-1.78,-2.92
687543,35.89,846.77,4105.32,105.69,-44.5,33.19,-1.09,1.18,-1.81,0.3,-2.96,-1.5
687565,35.89,846.77,4105.32,107.5,-44.38,36.81,-1.14,1.15,-1.99,-0.36,-3.1,-1.13
687587,35.89,846.77,4105.32,110.88,-43.62,42.44,-1.17,1.11,-2.12,0.39,-3.28,-1.2
687609,35.89,846.77,4105.32,113.06,-42.81,46.12,-1.2,1.06,-2.17,-0.68,-3.25,-0.42
687631,35.89,846.77,4105.32,115.31,-41.81,49.69,-1.18,1,-2.18,0.17,-3.33,-0.54
687653,35.89,846.77,4105.32,117.62,-40.56,53.06,-1.17,0.97,-2.19,-0.66,-3.68,0.29
687675,35.89,846.77,4105.32,119.81,-39.19,56.19,-1.12,0.9,-2.15,-2.83,-2.44,0.56
687697,35.89,846.77,4105.32,123.44,-36.75,60.31,-0.98,0.77,-2.3,-1.65,-3.89,0.88
687719,35.89,846.77,4105.32,126.25,-34.75,62.75,-0.83,0.69,-2.51,-1.46,-4.93,1.26
687741,35.89,846.77,4105.32,129.38,-32.31,64.81,-0.64,0.6,-2.81,-2.85,-3.95,1.53
687763,35.89,846.77,4105.32,132.88,-29.5,66.5,-0.42,0.51,-3.13,-2.29,-4.27,1.69
687785,35.89,846.77,4105.32,136.94,-26.12,67.81,-0.07,0.36,-3.88,-1.86,-5.22,2.02
687807,35.89,846.77,4105.32,141.62,-22.12,68.69,0.2,0.26,-4.51,-1.88,-4.8,1.99
687829,35.89,846.77,4105.32,150.12,-14.69,69.19,0.5,0.21,-5.24,-0.61,-5.1,1.69
687851,35.89,846.77,4105.32,156.81,-8.75,68.94,0.8,0.21,-5.99,0.14,-6.05,2.08
687873,35.89,846.77,4105.32,164.38,-2.06,68.06,1.13,0.28,-6.69,1.22,-5.65,1.85
687895,35.89,846.77,4105.32,172.44,4.94,66.44,1.43,0.41,-7.16,0.94,-4.91,1.51
687917,35.89,846.77,4105.32,180.69,12,64.06,1.66,0.59,-7.28,2.56,-3.85,1.14
687939,35.89,846.77,4105.32,192.56,21.69,59,1.83,0.94,-6.9,1.94,-3.34,0.63
687961,35.89,846.77,4105.32,200.06,27.19,54.62,1.83,1.21,-6.59,1.38,-2.2,0.01
687983,35.89,846.77,4105.32,207.12,31.75,49.56,1.76,1.46,-6.22,1.24,-2.7,0.11
688005,35.89,846.77,4105.32,213.75,35.31,43.81,1.65,1.7,-5.89,0.53,-2.11,-0.45
688027,35.89,846.77,4105.32,220.06,37.81,37.56,1.51,1.91,-5.56,0.51,-1.58,-0.55
688049,35.89,846.77,4105.32,225.94,39.25,31.06,1.27,2.2,-5.03,0.44,-0.78,-0.83
688071,35.89,846.77,4105.32,234.12,39.44,21.75,1.09,2.36,-4.73,0.05,-1.38,-1.28
688093,35.89,846.77,4105.32,239.12,38.5,16.12,0.9,2.48,-4.43,-0.43,-0.65,-1.53
688146,35.89,846.77,4105.32,250.25,33.5,5.44,0.42,2.63,-3.73,-1.32,-1.28,-2.7
688168,35.89,846.77,4105.32,254.12,30.88,2.56,0.27,2.63,-3.41,-1.72,-1.1,-2.8
688190,35.89,846.77,4105.32,257.62,28.06,0.31,0.1,2.57,-3.02,-2.06,-2.99,-4.13
688212,35.89,846.77,4105.32,262.5,23.75,-2.12,0.06,2.5,-2.88,-1.94,-1.73,-2.79
688234,35.89,846.77,4105.32,265.56,20.94,-3.38,0.04,2.42,-2.8,-1.73,-2.07,-3.61
688256,35.89,846.77,4105.32,268.5,18.06,-4.5,0.05,2.33,-2.72,-2.19,-1.84,-3.28
688278,35.89,846.77,4105.32,271.31,15.31,-5.38,0.07,2.24,-2.66,-1.89,-1.99,-3.38
688300,35.89,846.77,4105.32,274.12,12.62,-6.12,0.11,2.09,-2.67,-2.01,-2.01,-3.47
688322,35.89,846.77,4105.32,278.38,8.75,-7.12,0.14,2,-2.65,-2.08,-2.04,-3.22
688344,35.89,846.77,4105.32,281.12,6.25,-7.62,0.17,1.91,-2.62,-1.98,-2.32,-2.81
688366,35.89,846.77,4105.32,283.88,3.81,-8.06,0.22,1.82,-2.61,-1.9,-2.12,-2.96
688388,35.89,846.77,4105.32,286.56,1.5,-8.5,0.26,1.74,-2.58,-1.93,-2.25,-2.45
688410,35.89,846.77,4105.32,289.31,-0.75,-8.81,0.3,1.65,-2.55,-1.91,-2.33,-2.61
688432,35.89,846.77,4105.32,291.94,-2.94,-9.12,0.38,1.55,-2.51,-2.08,-2.49,-2.01
688454,35.89,846.77,4105.32,295.94,-6.12,-9.5,0.44,1.51,-2.48,-1.7,-2.25,-3.07
688476,35.89,846.77,4105.32,298.56,-8.19,-9.75,0.5,1.48,-2.44,-2.12,-2.23,-2.24
688498,35.89,846.77,4105.32,301.12,-10.25,-9.94,0.55,1.46,-2.4,-2.35,-2.3,-1.95
688520,35.89,846.77,4105.32,303.69,-12.25,-10.12,0.61,1.44,-2.37,-2.06,-2.24,-2.24
688580,35.89,846.77,4105.32,311.25,-18.31,-10.94,0.88,1.42,-2.18,-1.82,-2.4,-1.6
688602,35.89,846.77,4105.32,313.62,-20.31,-11.31,1,1.44,-2.05,-2.14,-2.22,-0.57
688624,35.89,846.77,4105.32,315.94,-22.38,-11.69,1.08,1.45,-1.92,-2.01,-2.11,-0.45
688646,35.89,846.77,4105.32,319.31,-25.38,-12.44,1.15,1.47,-1.75,-2.34,-2.15,-0.31
688668,35.89,846.77,4105.32,321.19,-27.31,-13.12,1.21,1.46,-1.53,-2.08,-1.72,-0.58
688690,35.89,846.77,4105.32,323.31,-29.25,-13.94,1.26,1.46,-1.27,-2.69,-1.53,-0.22
688712,35.89,846.77,4105.32,324.69,-31.12,-14.88,1.3,1.44,-1,-2.5,-0.91,-0.46
688734,35.89,846.77,4105.32,326.06,-32.88,-16.12,1.35,1.4,-0.75,-2.7,-0.47,0
688756,35.89,846.77,4105.32,327.31,-35.19,-18.31,1.42,1.3,-0.38,-3.2,0.31,0.67
688778,35.89,846.77,4105.32,328.06,-36.56,-20.12,1.46,1.21,-0.15,-2.61,0.15,-0.2
688800,35.89,846.77,4105.32,328.38,-37.75,-22.12,1.51,1.13,0.07,-2.71,0.72,-0.04
688822,35.89,846.77,4105.32,328.5,-38.75,-24.44,1.55,1.04,0.34,-2.61,1.26,0.19
688844,35.89,846.77,4105.32,328.44,-39.44,-27,1.6,0.88,0.68,-2.7,1.8,-0.12
688866,35.89,846.77,4105.32,328.06,-39.88,-29.75,1.62,0.74,0.88,-2.81,2.19,-0.46
688888,35.89,846.77,4105.32,327.38,-40,-34.06,1.62,0.6,1.01,-2.82,2.99,-0.23
688910,35.89,846.77,4105.32,326.81,-39.75,-36.88,1.59,0.46,1.03,-2.43,3.28,-0.49
688932,35.89,846.77,4105.32,326.31,-39.44,-39.5,1.56,0.33,0.96,-1.73,3.06,-0.88
688954,35.89,846.77,4105.32,325.94,-38.94,-41.94,1.52,0.21,0.86,-1.87,3.41,-0.72
688976,35.89,846.77,4105.32,325.81,-38.56,-44.12,1.45,0.09,0.61,-1.72,2.88,-1.15
688998,35.89,846.77,4105.32,326.5,-38.19,-46.62,1.33,-0.07,0.11,-1.59,3.91,-1
689020,35.89,846.77,4105.32,327.31,-38.19,-47.81,1.22,-0.16,-0.27,-1.67,2.93,-1.15
689042,35.89,846.77,4105.32,328.94,-38.5,-48.62,1.12,-0.24,-0.67,-1.32,3.14,-1.13
689064,35.89,846.77,4105.32,330.62,-39.19,-49,1.02,-0.29,-1.11,-1.09,1.75,-1.47
689086,35.89,846.77,4105.32,332.88,-40.06,-49,0.93,-0.32,-1.47,-0.76,1.5,-1.64
689108,35.89,846.77,4105.32,335.31,-41.25,-48.69,0.82,-0.33,-1.91,-0.64,1.15,-1.84
689130,35.89,846.77,4105.32,339.5,-43.44,-47.56,0.77,-0.33,-2.12,-0.2,2.37,-1.83
689152,35.89,846.77,4105.32,342.5,-45,-46.44,0.7,-0.34,-2.31,-1.1,1.46,-1.52
689174,35.89,846.77,4105.32,345.75,-46.62,-44.94,0.65,-0.4,-2.51,-1.5,1.49,-1.18
689196,35.89,846.77,4105.32,349.19,-48.31,-42.88,0.6,-0.47,-2.71,-1.4,1.4,-1.21
689218,35.89,846.77,4105.32,352.81,-50,-40.31,0.55,-0.6,-2.99,-0.73,1.46,-1.44
689240,35.89,846.77,4105.32,358.69,-52.31,-35.38,0.52,-0.69,-3.19,-2.06,1.52,-1.01
689262,35.89,846.77,4105.32,2.88,-53.56,-31.19,0.48,-0.81,-3.34,-1.67,0.74,-1.12
689284,35.89,846.77,4105.32,7.12,-54.56,-26.44,0.47,-0.93,-3.47,-1.44,0.56,-1.12
689306,35.89,846.77,4105.32,11.56,-55.12,-21.19,0.47,-1.03,-3.61,-1.85,0.62,-1.17
689328,35.89,846.77,4105.32,16.06,-55.25,-15.56,0.48,-1.12,-3.69,-1.99,0.8,-1.25
689350,35.89,846.77,4105.32,20.5,-54.88,-10,0.48,-1.31,-3.57,-3.24,0.81,-0.86
689372,35.89,846.77,4105.32,26.75,-53.19,-2.56,0.46,-1.46,-3.34,-0.84,-0.1,-2.34
689394,35.89,846.77,4105.32,30.5,-51.56,1.44,0.47,-1.52,-3.11,-0.94,-0.05,-2.54
689416,35.89,846.77,4105.32,33.94,-49.62,4.81,0.46,-1.57,-2.85,-0.67,-0.22,-2.63
689438,35.89,846.77,4105.32,37.06,-47.56,7.38,0.44,-1.63,-2.58,-1.64,0,-2.33
689460,35.89,846.77,4105.32,39.69,-45.31,9.38,0.37,-1.76,-2.12,-1.72,-0.36,-2.05
689482,35.89,846.77,4105.32,43.06,-41.75,11.38,0.33,-1.84,-1.93,-0.44,-0.28,-2.64
689504,35.89,846.77,4105.32,45.06,-39.31,12.44,0.28,-1.89,-1.84,-1.01,0.15,-2.45
689526,35.89,846.77,4105.32,46.94,-36.75,13.31,0.21,-1.98,-1.78,-0.61,0.2,-3.06
689548,35.89,846.77,4105.32,48.75,-34.06,14.12,0.14,-2.04,-1.77,-1.21,0.43,-3.2
689602,35.89,846.77,4105.32,53.19,-27,15.94,-0.09,-2.3,-1.73,-0.49,0.81,-3.14
689624,35.89,846.77,4105.32,55.5,-22.44,16.88,-0.15,-2.37,-1.76,0.84,1.03,-3.49
689646,35.89,846.77,4105.32,57.31,-19.31,17.56,-0.21,-2.4,-1.81,0.86,1.19,-4.1
689668,35.89,846.77,4105.32,58.81,-16.12,18.19,-0.25,-2.42,-1.82,0.5,1.09,-3.5
689690,35.89,846.77,4105.32,60.5,-12.94,18.75,-0.29,-2.46,-1.77,0.77,1.13,-4.17
689712,35.89,846.77,4105.32,61.94,-9.69,19.25,-0.35,-2.5,-1.67,0.82,1.19,-4.63
689734,35.89,846.77,4105.32,63.19,-6.5,19.81,-0.41,-2.57,-1.55,1.08,1.2,-5.13
689756,35.89,846.77,4105.32,65.06,-1.56,20.56,-0.46,-2.63,-1.46,1.1,1.16,-4.92
689778,35.89,846.77,4105.32,66.12,1.75,21.12,-0.5,-2.7,-1.44,1.51,1.04,-4.76
689800,35.89,846.77,4105.32,67.31,5.19,21.69,-0.53,-2.79,-1.46,1.58,0.85,-4.25
689822,35.89,846.77,4105.32,68.38,8.75,22.25,-0.54,-2.88,-1.47,1.72,0.67,-4.39
689844,35.89,846.77,4105.32,69.44,12.38,22.81,-0.53,-3.01,-1.57,1.84,0.7,-4.59
689866,35.89,846.77,4105.32,71.25,18.12,23.56,-0.51,-3.09,-1.63,1.9,0.05,-3.66
689888,35.89,846.77,4105.32,72.44,22.06,24,-0.48,-3.16,-1.64,1.52,-0.12,-3.84
689910,35.89,846.77,4105.32,73.62,26,24.44,-0.47,-3.21,-1.58,1.12,-1.13,-3.98
689932,35.89,846.77,4105.32,74.62,29.94,25,-0.48,-3.25,-1.46,0.9,-1.5,-3.99
689991,35.89,846.77,4105.32,77.12,41.44,27.44,-0.53,-3.17,-1.11,3.44,-0.9,-2.94
690013,35.89,846.77,4105.32,77.88,45,28.5,-0.54,-3.03,-1.11,4.69,0,-2.49
690035,35.89,846.77,4105.32,78.81,48.5,29.56,-0.54,-2.87,-1.23,4.85,-0.92,-2.07
690057,35.89,846.77,4105.32,81,53.62,30.44,-0.48,-2.58,-1.69,6.27,-1.03,-1.06
690079,35.89,846.77,4105.32,83,57.06,30,-0.37,-2.35,-2.16,5.13,-0.74,-1.38
690101,35.89,846.77,4105.32,85.75,60.62,28.06,-0.23,-2.13,-2.79,5.57,-0.71,-0.9
690123,35.89,846.77,4105.32,89.25,64.19,23.62,-0.07,-1.89,-3.52,6.2,-0.16,-0.51
690145,35.89,846.77,4105.32,93.44,67.44,15.62,0.1,-1.61,-4.15,5.9,0.41,-0.26
690167,35.89,846.77,4105.32,98.19,69.75,3.38,0.32,-1.11,-4.75,5.02,1.61,-0.25
690189,35.89,846.77,4105.32,105.69,70.25,-19.38,0.38,-0.76,-4.66,3.93,2.48,-0.51
690211,35.89,846.77,4105.32,110.25,68.69,-31.94,0.35,-0.43,-4.16,4.55,3.31,-0.34
690233,35.89,846.77,4105.32,114.06,66.44,-40.38,0.26,-0.09,-3.4,3.1,2.97,-0.64
690255,35.89,846.77,4105.32,117.38,64.25,-45.31,0.14,0.2,-2.6,3.08,2.92,-0.91
690277,35.89,846.77,4105.32,119.44,62.31,-47.69,-0.09,0.58,-1.35,3.44,3.49,-0.9
690299,35.89,846.77,4105.32,121.44,60.44,-47.69,-0.27,0.82,-0.46,2.92,2.85,-1.18
690321,35.89,846.77,4105.32,121.25,59.81,-45.62,-0.43,1.04,0.38,2.32,3.32,-1.51
690343,35.89,846.77,4105.32,120.62,59.62,-42.12,-0.57,1.24,1.18,1.79,3.07,-1.7
690365,35.89,846.77,4105.32,118.81,59.69,-37.19,-0.66,1.45,1.91,2.18,2.47,-1.81
690387,35.89,846.77,4105.32,116.19,59.75,-30.81,-0.71,1.65,2.66,1.39,1.58,-2.13
690409,35.89,846.77,4105.32,112.69,59.56,-22.94,-0.66,1.92,3.92,1.09,1.59,-2.41
690431,35.89,846.77,4105.32,105.75,58.31,-8.81,-0.56,2.1,4.75,0.72,1.48,-2.77
690453,35.89,846.77,4105.32,100.06,56.25,1.12,-0.43,2.26,5.52,0.75,0.88,-3.04
690475,35.89,846.77,4105.32,93.69,52.94,10.44,-0.27,2.41,6.12,1.13,0.37,-3.23
690497,35.89,846.77,4105.32,87,48.5,18.06,-0.04,2.54,6.36,1.71,-0.21,-3.36
690519,35.89,846.77,4105.32,80.44,43.38,23.5,0.38,2.6,6.02,0.46,-1.18,-3.88
690541,35.89,846.77,4105.32,74.25,37.94,27.06,0.68,2.53,5.76,0.59,-1.31,-3.93
690563,35.89,846.77,4105.32,65.38,29.81,29.94,0.93,2.43,5.47,0.25,-1,-4.43
690585,35.89,846.77,4105.32,59.88,24.62,30.69,1.14,2.3,5.22,0.26,-0.51,-4.26
690607,35.89,846.77,4105.32,54.69,19.69,30.69,1.31,2.16,4.93,0.47,-0.3,-4.44
690629,35.89,846.77,4105.32,49.81,15.12,30.12,1.48,2.01,4.59,0.65,-0.23,-4.26
690651,35.89,846.77,4105.32,45.38,10.94,29.12,1.71,1.79,4.02,0.41,-0.58,-4.37
690673,35.89,846.77,4105.32,39.5,5.44,26.75,1.86,1.63,3.63,0.55,-0.96,-4.09
690695,35.89,846.77,4105.32,36.12,2.31,24.75,2.01,1.44,3.22,0.39,-0.91,-4.31
690717,35.89,846.77,4105.32,33.19,-0.19,22.44,2.12,1.25,2.79,-0.17,-1,-3.9
690739,35.89,846.77,4105.32,30.56,-2.44,20,2.19,1.1,2.55,0.39,-1.4,-2.59
690761,35.89,846.77,4105.32,28.19,-4.31,17.38,2.3,0.87,2.24,-0.3,-0.78,-3.39
690783,35.89,846.77,4105.32,24.94,-6.56,13.19,2.34,0.72,2.11,-0.61,-0.81,-2.27
690805,35.89,846.77,4105.32,22.94,-7.69,10.31,2.36,0.58,1.96,-0.45,-0.66,-2.57
690827,35.89,846.77,4105.32,21.06,-8.56,7.44,2.35,0.46,1.85,-1.05,-0.38,-2.33
690849,35.89,846.77,4105.32,19.31,-9.12,4.56,2.32,0.32,1.78,-1.22,0.03,-2.78
690871,35.89,846.77,4105.32,17.62,-9.5,1.69,2.28,0.18,1.7,-1.68,0.04,-2.65
690893,35.89,846.77,4105.32,16,-9.56,-1.06,2.21,-0.04,1.61,-1.81,0.56,-2.54
690915,35.89,846.77,4105.32,13.69,-9.25,-5.12,2.15,-0.21,1.54,-1.98,0.85,-2.86
690937,35.89,846.77,4105.32,12.25,-8.69,-7.69,2.08,-0.38,1.48,-2.2,1.11,-2.69
690959,35.89,846.77,4105.32,10.94,-7.81,-10.06,1.96,-0.64,1.38,-2.28,1.53,-2.79
690981,35.89,846.77,4105.32,9.69,-6.62,-12.38,1.87,-0.81,1.31,-2.28,2.19,-2.65
691003,35.89,846.77,4105.32,8.5,-5.31,-14.44,1.7,-1.06,1.21,-2.14,2.5,-2.75
691058,35.89,846.77,4105.32,5.62,-0.25,-19.56,1.29,-1.46,0.96,-1.65,3.87,-1.92
691080,35.89,846.77,4105.32,4.94,1.69,-20.88,1.11,-1.61,0.86,-1.38,3.54,-2.42
691102,35.89,846.77,4105.32,4.38,3.75,-21.94,0.93,-1.75,0.79,-1.59,4.5,-1.76
691124,35.89,846.77,4105.32,3.88,6,-22.81,0.61,-1.97,0.78,-1.14,4.02,-2.19
691146,35.89,846.77,4105.32,3.25,9.62,-23.62,0.39,-2.1,0.81,-0.59,3.35,-2.86
691168,35.89,846.77,4105.32,2.81,12.25,-23.94,0.2,-2.23,0.82,-0.53,3.61,-2.35
691190,35.89,846.77,4105.32,2.44,15,-24.06,0.02,-2.36,0.8,-0.27,2.83,-2.77
691212,35.89,846.77,4105.32,2.19,17.81,-24.06,-0.14,-2.48,0.76,-0.12,3.63,-1.87
691234,35.89,846.77,4105.32,2,20.75,-23.94,-0.3,-2.58,0.72,0.14,2.84,-2.26
691256,35.89,846.77,4105.32,1.94,23.69,-23.69,-0.5,-2.68,0.59,0.65,3.21,-2.08
691278,35.89,846.77,4105.32,2.19,28.12,-23.25,-0.59,-2.71,0.44,0.05,2.99,-2.69
691300,35.89,846.77,4105.32,2.94,31.06,-23.06,-0.64,-2.73,0.23,0.55,3.37,-2.37
691322,35.89,846.77,4105.32,3.62,33.88,-23,-0.68,-2.72,-0.02,1.44,3.11,-1.95
691344,35.89,846.77,4105.32,4.75,36.5,-23.31,-0.69,-2.69,-0.39,1.86,3.86,-1.34
691404,35.89,846.77,4105.32,10.81,43,-26.56,-0.65,-2.52,-1.36,2.49,2.59,-1.33
691426,35.89,846.77,4105.32,13.44,44.56,-28.62,-0.61,-2.36,-1.82,2.71,3.52,-0.88
691448,35.89,846.77,4105.32,16.38,45.81,-31.06,-0.59,-2.25,-1.99,2.09,3.49,-1.3
691470,35.89,846.77,4105.32,21.12,47,-35.19,-0.57,-2.15,-2.1,2.44,2.93,-1.11
691492,35.89,846.77,4105.32,24.38,47.44,-38.12,-0.54,-2.04,-2.16,2.83,3.8,-0.76
691514,35.89,846.77,4105.32,27.81,47.56,-41.06,-0.55,-1.91,-2.16,2.74,3,-0.77
691536,35.89,846.77,4105.32,31.06,47.44,-43.75,-0.57,-1.77,-2.04,2.3,3.19,-0.78
691558,35.89,846.77,4105.32,34.56,47.25,-46.12,-0.64,-1.62,-1.86,3.43,3.61,-0.24
691580,35.89,846.77,4105.32,38.81,46.94,-48.88,-0.77,-1.41,-1.56,2.79,3.38,-0.4
691602,35.89,846.77,4105.32,41.56,46.62,-50.25,-0.86,-1.27,-1.35,1.99,2.78,-0.67
691624,35.89,846.77,4105.32,43.94,46.44,-51.19,-0.95,-1.14,-1.18,3.13,2.56,-0.12
691646,35.89,846.77,4105.32,46.12,46.19,-51.75,-1.05,-0.97,-1.04,2.02,2.73,-0.38
691668,35.89,846.77,4105.32,48.31,45.94,-51.94,-1.18,-0.69,-0.95,3.89,2.02,0.02
691690,35.89,846.77,4105.32,50.31,45.5,-51.81,-1.24,-0.45,-1.04,4.45,1.28,-0.25
691712,35.89,846.77,4105.32,53.56,44.38,-51.38,-1.26,-0.21,-1.19,4.33,0.73,-0.3
691734,35.89,846.77,4105.32,55.69,43.31,-50.81,-1.3,0.02,-1.34,4.52,0.7,-0.14
691756,35.89,846.77,4105.32,57.94,41.94,-50.12,-1.33,0.26,-1.48,3.27,0.12,-0.66
691778,35.89,846.77,4105.32,60.12,40.31,-49.31,-1.35,0.44,-1.57,3.66,-0.36,-0.89
691800,35.89,846.77,4105.32,62.38,38.5,-48.44,-1.37,0.62,-1.73,3.33,0.37,-1.05
691822,35.89,846.77,4105.32,66,35.25,-47,-1.41,0.88,-2.04,3.05,0.05,-1.15
691844,35.89,846.77,4105.32,68.56,32.69,-46,-1.44,1.03,-2.25,3.64,-0.43,-1.18
691866,35.89,846.77,4105.32,71.31,29.88,-44.94,-1.49,1.17,-2.48,2.75,-0.91,-1.71
691888,35.89,846.77,4105.32,74.19,26.88,-43.88,-1.54,1.27,-2.66,3.43,-0.87,-1.34
691910,35.89,846.77,4105.32,77.19,23.62,-42.69,-1.62,1.37,-2.85,2.81,-0.88,-1.85
691932,35.89,846.77,4105.32,81.94,18.56,-40.62,-1.77,1.45,-3.08,3.11,-0.24,-1.41
691954,35.89,846.77,4105.32,85.25,15,-39.06,-1.89,1.5,-3.21,2.29,-0.16,-1.95
691976,35.89,846.77,4105.32,88.56,11.5,-37.31,-2,1.5,-3.27,3.1,-0.45,-1.3
691998,35.89,846.77,4105.32,91.88,7.94,-35.31,-2.13,1.52,-3.27,2.8,-0.8,-1.63
692020,35.89,846.77,4105.32,95.12,4.56,-33.12,-2.24,1.51,-3.25,2.39,-1.26,-1.71
692042,35.89,846.77,4105.32,98.31,1.25,-30.62,-2.39,1.48,-3.23,1.94,-1.34,-2.25
692064,35.89,846.77,4105.32,102.94,-3.38,-26.56,-2.46,1.42,-3.18,1.55,-1.9,-2.19
692086,35.89,846.77,4105.32,105.94,-6.19,-23.56,-2.47,1.34,-3.07,1.68,-2.36,-2.89
692108,35.89,846.77,4105.32,108.75,-8.75,-20.56,-2.43,1.27,-2.96,2.09,-2.79,-2.75
692130,35.89,846.77,4105.32,111.56,-11.12,-17.44,-2.36,1.23,-2.9,2.77,-2.78,-2.72
692152,35.89,846.77,4105.32,114.25,-13.31,-14.31,-2.27,1.24,-2.88,2.81,-2.79,-2.84
692174,35.89,846.77,4105.32,117,-15.38,-11.19,-2.09,1.3,-2.87,3.03,-2.84,-2.78
692196,35.89,846.77,4105.32,121.06,-18.25,-6.44,-1.99,1.36,-2.85,2.97,-3.19,-2.19
692218,35.89,846.77,4105.32,123.81,-20.12,-3.25,-1.87,1.44,-2.83,3.19,-3.02,-1.96
692240,35.89,846.77,4105.32,126.5,-21.88,-0.12,-1.74,1.53,-2.8,3.28,-3.51,-0.96
692262,35.89,846.77,4105.32,129.25,-23.56,2.94,-1.63,1.63,-2.77,3.21,-3.86,-0.37
692284,35.89,846.77,4105.32,132,-25.25,6.12,-1.48,1.8,-2.79,3.46,-3.68,0.1
692306,35.89,846.77,4105.32,136.38,-27.56,11.12,-1.4,1.91,-2.89,3.28,-4.19,1.47
692328,35.89,846.77,4105.32,139.56,-29,14.62,-1.32,2.01,-3.03,2.79,-3.51,-0.03
692350,35.89,846.77,4105.32,143,-30.19,18.31,-1.31,2.08,-3.22,2.75,-2.75,-0.71
692372,35.89,846.77,4105.32,146.75,-31.06,22.44,-1.37,2.13,-3.42,2.43,-2.4,-0.99
692394,35.89,846.77,4105.32,150.69,-31.62,26.81,-1.46,2.15,-3.62,2.11,-1.62,-1.95
692416,35.89,846.77,4105.32,154.88,-31.62,31.5,-1.7,2.11,-3.84,1.5,-2.23,-0.59
692438,35.89,846.77,4105.32,161.38,-30.75,38.88,-1.88,2.04,-3.89,1.49,-1.65,-1.91
692460,35.89,846.77,4105.32,165.81,-29.5,43.88,-2.05,1.96,-3.94,1.2,-1.9,-1.7
692516,35.89,846.77,4105.32,177.31,-24.31,55.62,-2.26,1.75,-4.08,0.42,-3.16,-0.73
692538,35.89,846.77,4105.32,184.88,-19.88,61.81,-2.2,1.71,-4.26,1.77,-3.49,-1.14
692560,35.89,846.77,4105.32,190.38,-16.31,65.44,-2.11,1.67,-4.5,1.92,-4.35,-0.63
692582,35.89,846.77,4105.32,196.38,-12.19,68.62,-1.99,1.62,-4.81,1.81,-3.92,-0.88
692604,35.89,846.77,4105.32,203,-7.44,71.38,-1.88,1.55,-5.24,2.75,-4.41,-0.55
692626,35.89,846.77,4105.32,210.38,-1.94,73.69,-1.71,1.42,-6.04,3.19,-3.35,-0.54
692648,35.89,846.77,4105.32,218.38,4.12,75.5,-1.64,1.32,-6.27,2.91,-2.72,-0.43
692670,35.89,846.77,4105.32,230.75,13.75,77.44,-1.58,1.24,-6.17,3.26,-1.45,-0.36
692692,35.89,846.77,4105.32,238.62,19.75,78.38,-1.56,1.17,-5.65,2.84,-1.45,-0.16
692714,35.89,846.77,4105.32,245.75,25,79.19,-1.58,1.14,-4.86,2.58,-0.54,0
692736,35.89,846.77,4105.32,252.12,29.38,79.88,-1.59,1.14,-4.04,1.68,0.17,0.03
692793,35.89,846.77,4105.32,266.94,38,81.38,-1.54,1.29,-2.01,1.54,0.25,0.48
692815,35.89,846.77,4105.32,270.62,39.5,81.62,-1.5,1.41,-1.44,1.56,-0.05,0.67
692837,35.89,846.77,4105.32,273.88,40.38,81.69,-1.44,1.54,-0.92,1.86,-1.53,1.31
692859,35.89,846.77,4105.32,276.69,40.81,81.56,-1.33,1.72,-0.52,2.12,-2.05,1.68
692881,35.89,846.77,4105.32,280,40.62,80.75,-1.06,2,-0.02,1.08,-1.34,1.16
692903,35.89,846.77,4105.32,281.94,40.06,79.81,-0.87,2.16,0.21,1.84,-2.55,1.76
692925,35.89,846.77,4105.32,283.5,39.19,78.56,-0.65,2.33,0.43,0.38,-1.38,0.88
692947,35.89,846.77,4105.32,284.88,37.94,77.12,-0.44,2.47,0.68,-0.08,-1.72,0.69
692969,35.89,846.77,4105.32,285.94,36.38,75.5,-0.2,2.56,0.87,-0.67,-1.66,0.49
692991,35.89,846.77,4105.32,287.06,33.62,72.81,0.16,2.65,1.06,-0.72,-1.49,0.27
693013,35.89,846.77,4105.32,287.44,31.44,70.88,0.41,2.65,1.2,-1.11,-0.52,-0.31
693035,35.89,846.77,4105.32,287.56,29.06,68.94,0.63,2.64,1.4,-1.84,-0.32,-0.62
693057,35.89,846.77,4105.32,287.25,26.31,67,0.85,2.6,1.67,-1.79,-0.22,-0.8
693079,35.89,846.77,4105.32,286.5,23.25,65.06,1.06,2.54,2,-1.8,-0.38,-0.79
693101,35.89,846.77,4105.32,285.31,19.81,63.19,1.38,2.38,2.54,-2.39,-0.16,-0.96
693123,35.89,846.77,4105.32,282.5,13.94,60.31,1.61,2.23,2.93,-2.6,0.11,-1.21
693145,35.89,846.77,4105.32,279.94,9.69,58.31,1.82,2.04,3.34,-2.89,0.48,-1.7
693167,35.89,846.77,4105.32,276.81,5.12,56.19,2.01,1.84,3.76,-2.72,0.71,-1.82
693189,35.89,846.77,4105.32,273.19,0.38,53.88,2.17,1.62,4.18,-2.78,1.29,-2.42
693211,35.89,846.77,4105.32,269.19,-4.38,51.31,2.29,1.36,4.46,-2.92,1.89,-2.85
693233,35.89,846.77,4105.32,262.69,-11.38,46.88,2.36,0.97,4.64,-2.88,2.56,-3.53
693255,35.89,846.77,4105.32,258.19,-15.69,43.56,2.35,0.72,4.71,-2.19,2.87,-3.91
693277,35.89,846.77,4105.32,253.69,-19.56,39.88,2.3,0.49,4.69,-1.29,3.12,-4.3
693299,35.89,846.77,4105.32,249.12,-23.06,35.88,2.21,0.31,4.63,-0.99,3.2,-4.67
693321,35.89,846.77,4105.32,244.69,-26.06,31.62,2.09,0.16,4.57,-0.24,3.34,-4.84
693343,35.89,846.77,4105.32,240.25,-28.62,27.19,1.87,-0.02,4.46,0.74,2.98,-5.17
693365,35.89,846.77,4105.32,233.75,-31.44,20.31,1.71,-0.12,4.33,0.98,2.73,-5.33
693387,35.89,846.77,4105.32,229.56,-32.69,15.69,1.56,-0.2,4.2,1.43,2.14,-5.56
693409,35.89,846.77,4105.32,225.5,-33.5,11.19,1.41,-0.27,4.03,1.5,2.38,-5.47
693431,35.89,846.77,4105.32,221.69,-33.81,6.94,1.27,-0.31,3.82,1.52,2.59,-5.33
693453,35.89,846.77,4105.32,218.06,-33.81,3.06,1.03,-0.33,3.46,1.69,2.45,-5.43
693475,35.89,846.77,4105.32,212.94,-33.31,-2.25,0.93,-0.31,3.32,1.89,2.65,-5.39
693497,35.89,846.77,4105.32,209.62,-32.75,-5.56,0.87,-0.29,3.23,2.06,2.89,-5.41
693519,35.89,846.77,4105.32,206.31,-32,-8.75,0.8,-0.24,3.24,1.9,2.77,-5.2
693541,35.89,846.77,4105.32,202.94,-31.12,-11.75,0.75,-0.19,3.27,1.84,3.36,-4.86
693563,35.89,846.77,4105.32,199.62,-30.12,-14.62,0.72,-0.15,3.23,2.23,3.41,-4.84
693585,35.89,846.77,4105.32,196.31,-29,-17.25,0.67,-0.09,3.1,1.73,2.25,-4.92
693607,35.89,846.77,4105.32,191.44,-27.25,-20.94,0.66,-0.04,3.1,1.86,4.59,-4.02
693629,35.89,846.77,4105.32,188.19,-25.94,-23.25,0.6,0,3.07,1.93,3.04,-4.23
693651,35.89,846.77,4105.32,185,-24.62,-25.31,0.57,0.05,2.97,2.41,4.27,-3.79
693673,35.89,846.77,4105.32,181.94,-23.31,-27.19,0.51,0.12,2.85,1.95,3.3,-4.03
693695,35.89,846.77,4105.32,178.94,-22,-28.88,0.39,0.28,2.73,1.91,3.64,-3.71
693717,35.89,846.77,4105.32,175.94,-20.88,-30.38,0.27,0.43,2.54,2.25,3.67,-3.95
693739,35.89,846.77,4105.32,171.75,-19.5,-32.12,0.16,0.59,2.25,2.09,3.75,-3.91
693761,35.89,846.77,4105.32,169.31,-18.94,-33.06,0.03,0.76,1.97,2.35,4.18,-3.57
